Sample 1
5/10/2022 11:45 AM
Wavelength (nm)	10mm Absorbance
//WLCalib: Shift 	0.17333	
//WLCalib: 261S 	-0.08000	
//WLCalib: 362S 	-0.30000	
//WLCalib: 484S 	0.09000	
//WLCalib: 529S 	0.09000	
//WLCalib: 823S 	-0.38000	
//QSpecEnd: 
190.0	0.250
190.5	0.318
191.0	0.375
191.5	0.494
192.0	0.360
192.5	0.212
193.0	0.155
193.5	0.100
194.0	0.066
194.5	0.148
195.0	0.359
195.5	0.562
196.0	0.671
196.5	0.665
197.0	0.558
197.5	0.279
198.0	0.174
198.5	-0.113
199.0	-0.193
199.5	-0.129
200.0	-0.043
200.5	0.037
201.0	0.062
201.5	0.106
202.0	0.084
202.5	-0.026
203.0	-0.040
203.5	-0.062
204.0	0.032
204.5	0.054
205.0	0.049
205.5	0.051
206.0	0.047
206.5	0.037
207.0	0.021
207.5	-0.001
208.0	-0.016
208.5	0.000
209.0	0.000
209.5	0.000
210.0	0.000
210.5	0.000
211.0	0.000
211.5	0.001
212.0	-0.029
212.5	-0.012
213.0	0.012
213.5	0.044
214.0	0.104
214.5	0.143
215.0	0.162
215.5	0.160
216.0	0.138
216.5	0.094
217.0	0.020
217.5	0.021
218.0	-0.023
218.5	-0.008
219.0	0.000
219.5	0.000
220.0	0.000
220.5	0.000
221.0	0.000
221.5	0.000
222.0	0.000
222.5	0.000
223.0	0.000
223.5	0.000
224.0	0.000
224.5	0.000
225.0	0.000
225.5	0.000
226.0	0.000
226.5	0.000
227.0	0.000
227.5	0.000
228.0	0.000
228.5	0.000
229.0	0.000
229.5	0.000
230.0	0.000
230.5	0.000
231.0	0.000
231.5	0.000
232.0	0.000
232.5	0.000
233.0	0.000
233.5	0.000
234.0	0.000
234.5	0.000
235.0	0.000
235.5	0.000
236.0	0.000
236.5	0.000
237.0	0.000
237.5	0.000
238.0	0.000
238.5	0.000
239.0	0.000
239.5	0.000
240.0	-0.001
240.5	0.008
241.0	0.020
241.5	-0.010
242.0	-0.044
242.5	-0.067
243.0	-0.081
243.5	-0.085
244.0	-0.078
244.5	-0.061
245.0	-0.034
245.5	-0.002
246.0	0.024
246.5	0.001
247.0	0.000
247.5	0.000
248.0	0.000
248.5	0.000
249.0	0.000
249.5	0.000
250.0	0.000
250.5	0.000
251.0	0.000
251.5	0.000
252.0	0.000
252.5	0.000
253.0	0.000
253.5	0.000
254.0	0.000
254.5	0.000
255.0	0.000
255.5	0.000
256.0	0.000
256.5	0.000
257.0	0.000
257.5	0.000
258.0	0.000
258.5	0.000
259.0	0.000
259.5	0.000
260.0	0.000
260.5	0.000
261.0	0.000
261.5	0.000
262.0	0.000
262.5	0.000
263.0	0.000
263.5	0.000
264.0	0.000
264.5	0.000
265.0	0.000
265.5	0.000
266.0	0.000
266.5	0.000
267.0	0.000
267.5	0.000
268.0	0.000
268.5	0.000
269.0	0.000
269.5	0.000
270.0	0.000
270.5	0.000
271.0	0.000
271.5	0.000
272.0	0.000
272.5	0.000
273.0	0.000
273.5	0.000
274.0	0.000
274.5	0.000
275.0	0.000
275.5	0.000
276.0	0.000
276.5	0.000
277.0	0.000
277.5	0.000
278.0	0.000
278.5	0.000
279.0	0.000
279.5	0.000
280.0	0.000
280.5	0.000
281.0	0.000
281.5	0.000
282.0	0.000
282.5	0.000
283.0	-0.001
283.5	0.000
284.0	0.001
284.5	0.006
285.0	-0.044
285.5	0.000
286.0	0.056
286.5	0.097
287.0	0.123
287.5	0.133
288.0	0.127
288.5	0.107
289.0	0.072
289.5	0.025
290.0	-0.079
290.5	-0.038
291.0	0.061
291.5	-0.204
292.0	-0.286
292.5	-0.036
293.0	0.780
293.5	2.185
294.0	3.890
294.5	5.600
295.0	7.179
295.5	8.386
296.0	9.081
296.5	8.800
297.0	8.240
297.5	7.590
298.0	7.146
298.5	6.828
299.0	6.495
299.5	6.187
300.0	5.956
300.5	5.663
301.0	5.473
301.5	5.002
302.0	4.683
302.5	4.119
303.0	2.981
303.5	1.424
304.0	-0.299
304.5	-2.032
305.0	-3.542
305.5	-4.661
306.0	-5.263
306.5	-5.357
307.0	-4.937
307.5	-4.611
308.0	-4.463
308.5	-4.341
309.0	-4.266
309.5	-4.239
310.0	-4.198
310.5	-4.163
311.0	-4.139
311.5	-4.117
312.0	-4.097
312.5	-4.071
313.0	-4.060
313.5	-4.051
314.0	-4.031
314.5	-4.007
315.0	-3.989
315.5	-3.970
316.0	-3.959
316.5	-3.946
317.0	-3.940
317.5	-3.928
318.0	-3.916
318.5	-3.905
319.0	-3.894
319.5	-3.885
320.0	-3.887
320.5	-3.880
321.0	-3.872
321.5	-3.875
322.0	-3.878
322.5	-3.870
323.0	-3.869
323.5	-3.870
324.0	-3.869
324.5	-3.875
325.0	-3.877
325.5	-3.877
326.0	-3.878
326.5	-3.881
327.0	-3.882
327.5	-3.880
328.0	-3.879
328.5	-3.874
329.0	-3.871
329.5	-3.874
330.0	-3.875
330.5	-3.876
331.0	-3.874
331.5	-3.875
332.0	-3.875
332.5	-3.877
333.0	-3.877
333.5	-3.868
334.0	-3.865
334.5	-3.869
335.0	-3.867
335.5	-3.866
336.0	-3.866
336.5	-3.868
337.0	-3.871
337.5	-3.873
338.0	-3.871
338.5	-3.867
339.0	-3.863
339.5	-3.867
340.0	-3.867
340.5	-3.866
341.0	-3.865
341.5	-3.862
342.0	-3.859
342.5	-3.860
343.0	-3.860
343.5	-3.862
344.0	-3.863
344.5	-3.871
345.0	-3.869
345.5	-3.867
346.0	-3.869
346.5	-3.868
347.0	-3.867
347.5	-3.871
348.0	-3.870
348.5	-3.870
349.0	-3.872
349.5	-3.870
350.0	-3.863
350.5	-3.862
351.0	-3.863
351.5	-3.864
352.0	-3.867
352.5	-3.871
353.0	-3.866
353.5	-3.867
354.0	-3.870
354.5	-3.870
355.0	-3.867
355.5	-3.867
356.0	-3.868
356.5	-3.869
357.0	-3.872
357.5	-3.870
358.0	-3.867
358.5	-3.871
359.0	-3.878
359.5	-3.884
360.0	-3.882
360.5	-3.880
361.0	-3.872
361.5	-3.858
362.0	-3.850
362.5	-3.845
363.0	-3.840
363.5	-3.839
364.0	-3.845
364.5	-3.854
365.0	-3.864
365.5	-3.876
366.0	-3.881
366.5	-3.881
367.0	-3.884
367.5	-3.886
368.0	-3.877
368.5	-3.867
369.0	-3.859
369.5	-3.852
370.0	-3.852
370.5	-3.851
371.0	-3.850
371.5	-3.849
372.0	-3.853
372.5	-3.858
373.0	-3.860
373.5	-3.858
374.0	-3.861
374.5	-3.865
375.0	-3.870
375.5	-3.876
376.0	-3.879
376.5	-3.878
377.0	-3.880
377.5	-3.876
378.0	-3.874
378.5	-3.869
379.0	-3.867
379.5	-3.865
380.0	-3.870
380.5	-3.875
381.0	-3.874
381.5	-3.874
382.0	-3.879
382.5	-3.881
383.0	-3.884
383.5	-3.885
384.0	-3.879
384.5	-3.875
385.0	-3.873
385.5	-3.870
386.0	-3.864
386.5	-3.862
387.0	-3.865
387.5	-3.863
388.0	-3.864
388.5	-3.860
389.0	-3.855
389.5	-3.855
390.0	-3.852
390.5	-3.854
391.0	-3.852
391.5	-3.855
392.0	-3.857
392.5	-3.859
393.0	-3.859
393.5	-3.854
394.0	-3.851
394.5	-3.854
395.0	-3.852
395.5	-3.851
396.0	-3.849
396.5	-3.849
397.0	-3.847
397.5	-3.844
398.0	-3.844
398.5	-3.842
399.0	-3.843
399.5	-3.845
400.0	-3.848
400.5	-3.854
401.0	-3.857
401.5	-3.858
402.0	-3.856
402.5	-3.856
403.0	-3.858
403.5	-3.856
404.0	-3.853
404.5	-3.851
405.0	-3.850
405.5	-3.852
406.0	-3.853
406.5	-3.854
407.0	-3.854
407.5	-3.858
408.0	-3.859
408.5	-3.862
409.0	-3.865
409.5	-3.864
410.0	-3.865
410.5	-3.864
411.0	-3.863
411.5	-3.860
412.0	-3.860
412.5	-3.867
413.0	-3.870
413.5	-3.875
414.0	-3.878
414.5	-3.881
415.0	-3.886
415.5	-3.883
416.0	-3.876
416.5	-3.870
417.0	-3.865
417.5	-3.864
418.0	-3.862
418.5	-3.860
419.0	-3.857
419.5	-3.855
420.0	-3.853
420.5	-3.849
421.0	-3.848
421.5	-3.844
422.0	-3.843
422.5	-3.845
423.0	-3.851
423.5	-3.854
424.0	-3.854
424.5	-3.851
425.0	-3.848
425.5	-3.847
426.0	-3.845
426.5	-3.842
427.0	-3.846
427.5	-3.850
428.0	-3.858
428.5	-3.868
429.0	-3.873
429.5	-3.875
430.0	-3.875
430.5	-3.872
431.0	-3.870
431.5	-3.869
432.0	-3.871
432.5	-3.868
433.0	-3.864
433.5	-3.864
434.0	-3.863
434.5	-3.863
435.0	-3.862
435.5	-3.863
436.0	-3.872
436.5	-3.878
437.0	-3.882
437.5	-3.882
438.0	-3.878
438.5	-3.877
439.0	-3.871
439.5	-3.865
440.0	-3.861
440.5	-3.861
441.0	-3.864
441.5	-3.865
442.0	-3.866
442.5	-3.867
443.0	-3.869
443.5	-3.872
444.0	-3.872
444.5	-3.871
445.0	-3.872
445.5	-3.874
446.0	-3.872
446.5	-3.874
447.0	-3.871
447.5	-3.871
448.0	-3.869
448.5	-3.871
449.0	-3.874
449.5	-3.875
450.0	-3.879
450.5	-3.880
451.0	-3.877
451.5	-3.879
452.0	-3.877
452.5	-3.878
453.0	-3.878
453.5	-3.878
454.0	-3.882
454.5	-3.886
455.0	-3.890
455.5	-3.890
456.0	-3.886
456.5	-3.885
457.0	-3.882
457.5	-3.880
458.0	-3.878
458.5	-3.874
459.0	-3.877
459.5	-3.881
460.0	-3.884
460.5	-3.888
461.0	-3.891
461.5	-3.889
462.0	-3.886
462.5	-3.879
463.0	-3.877
463.5	-3.874
464.0	-3.873
464.5	-3.876
465.0	-3.877
465.5	-3.879
466.0	-3.884
466.5	-3.884
467.0	-3.883
467.5	-3.888
468.0	-3.889
468.5	-3.891
469.0	-3.896
469.5	-3.898
470.0	-3.900
470.5	-3.900
471.0	-3.909
471.5	-3.907
472.0	-3.903
472.5	-3.901
473.0	-3.893
473.5	-3.889
474.0	-3.890
474.5	-3.888
475.0	-3.894
475.5	-3.895
476.0	-3.898
476.5	-3.897
477.0	-3.895
477.5	-3.892
478.0	-3.890
478.5	-3.889
479.0	-3.893
479.5	-3.896
480.0	-3.901
480.5	-3.902
481.0	-3.907
481.5	-3.911
482.0	-3.909
482.5	-3.907
483.0	-3.906
483.5	-3.902
484.0	-3.897
484.5	-3.896
485.0	-3.890
485.5	-3.887
486.0	-3.887
486.5	-3.886
487.0	-3.885
487.5	-3.889
488.0	-3.893
488.5	-3.893
489.0	-3.894
489.5	-3.898
490.0	-3.895
490.5	-3.895
491.0	-3.896
491.5	-3.897
492.0	-3.899
492.5	-3.902
493.0	-3.897
493.5	-3.891
494.0	-3.886
494.5	-3.881
495.0	-3.880
495.5	-3.885
496.0	-3.889
496.5	-3.898
497.0	-3.905
497.5	-3.909
498.0	-3.911
498.5	-3.913
499.0	-3.910
499.5	-3.911
500.0	-3.914
500.5	-3.915
501.0	-3.916
501.5	-3.917
502.0	-3.918
502.5	-3.912
503.0	-3.914
503.5	-3.912
504.0	-3.909
504.5	-3.915
505.0	-3.917
505.5	-3.917
506.0	-3.918
506.5	-3.916
507.0	-3.914
507.5	-3.910
508.0	-3.912
508.5	-3.913
509.0	-3.912
509.5	-3.911
510.0	-3.911
510.5	-3.912
511.0	-3.913
511.5	-3.910
512.0	-3.911
512.5	-3.913
513.0	-3.916
513.5	-3.918
514.0	-3.916
514.5	-3.912
515.0	-3.910
515.5	-3.907
516.0	-3.899
516.5	-3.895
517.0	-3.891
517.5	-3.887
518.0	-3.889
518.5	-3.893
519.0	-3.902
519.5	-3.908
520.0	-3.909
520.5	-3.914
521.0	-3.910
521.5	-3.907
522.0	-3.898
522.5	-3.893
523.0	-3.895
523.5	-3.899
524.0	-3.905
524.5	-3.909
525.0	-3.915
525.5	-3.915
526.0	-3.909
526.5	-3.903
527.0	-3.900
527.5	-3.898
528.0	-3.900
528.5	-3.903
529.0	-3.909
529.5	-3.916
530.0	-3.920
530.5	-3.916
531.0	-3.913
531.5	-3.913
532.0	-3.911
532.5	-3.909
533.0	-3.907
533.5	-3.902
534.0	-3.902
534.5	-3.896
535.0	-3.892
535.5	-3.889
536.0	-3.889
536.5	-3.892
537.0	-3.894
537.5	-3.898
538.0	-3.901
538.5	-3.904
539.0	-3.906
539.5	-3.906
540.0	-3.913
540.5	-3.922
541.0	-3.929
541.5	-3.934
542.0	-3.932
542.5	-3.924
543.0	-3.909
543.5	-3.895
544.0	-3.885
544.5	-3.880
545.0	-3.883
545.5	-3.888
546.0	-3.897
546.5	-3.904
547.0	-3.910
547.5	-3.916
548.0	-3.918
548.5	-3.921
549.0	-3.927
549.5	-3.934
550.0	-3.937
550.5	-3.934
551.0	-3.941
551.5	-3.941
552.0	-3.947
552.5	-3.953
553.0	-3.953
553.5	-3.943
554.0	-3.938
554.5	-3.932
555.0	-3.924
555.5	-3.912
556.0	-3.914
556.5	-3.917
557.0	-3.925
557.5	-3.931
558.0	-3.931
558.5	-3.930
559.0	-3.932
559.5	-3.932
560.0	-3.931
560.5	-3.930
561.0	-3.929
561.5	-3.931
562.0	-3.927
562.5	-3.924
563.0	-3.924
563.5	-3.929
564.0	-3.929
564.5	-3.931
565.0	-3.934
565.5	-3.935
566.0	-3.933
566.5	-3.933
567.0	-3.929
567.5	-3.927
568.0	-3.926
568.5	-3.918
569.0	-3.911
569.5	-3.908
570.0	-3.908
570.5	-3.912
571.0	-3.916
571.5	-3.928
572.0	-3.938
572.5	-3.941
573.0	-3.941
573.5	-3.933
574.0	-3.927
574.5	-3.918
575.0	-3.913
575.5	-3.911
576.0	-3.912
576.5	-3.919
577.0	-3.929
577.5	-3.938
578.0	-3.945
578.5	-3.955
579.0	-3.962
579.5	-3.961
580.0	-3.955
580.5	-3.952
581.0	-3.949
581.5	-3.945
582.0	-3.947
582.5	-3.947
583.0	-3.948
583.5	-3.943
584.0	-3.933
584.5	-3.924
585.0	-3.914
585.5	-3.913
586.0	-3.917
586.5	-3.920
587.0	-3.931
587.5	-3.936
588.0	-3.944
588.5	-3.945
589.0	-3.943
589.5	-3.941
590.0	-3.933
590.5	-3.929
591.0	-3.924
591.5	-3.916
592.0	-3.915
592.5	-3.915
593.0	-3.921
593.5	-3.932
594.0	-3.941
594.5	-3.945
595.0	-3.956
595.5	-3.962
596.0	-3.959
596.5	-3.956
597.0	-3.950
597.5	-3.937
598.0	-3.919
598.5	-3.904
599.0	-3.895
599.5	-3.891
600.0	-3.902
600.5	-3.909
601.0	-3.918
601.5	-3.930
602.0	-3.933
602.5	-3.933
603.0	-3.933
603.5	-3.935
604.0	-3.938
604.5	-3.944
605.0	-3.955
605.5	-3.965
606.0	-3.975
606.5	-3.979
607.0	-3.973
607.5	-3.967
608.0	-3.963
608.5	-3.955
609.0	-3.946
609.5	-3.941
610.0	-3.941
610.5	-3.939
611.0	-3.939
611.5	-3.939
612.0	-3.941
612.5	-3.942
613.0	-3.943
613.5	-3.939
614.0	-3.935
614.5	-3.933
615.0	-3.928
615.5	-3.920
616.0	-3.918
616.5	-3.922
617.0	-3.927
617.5	-3.936
618.0	-3.950
618.5	-3.963
619.0	-3.970
619.5	-3.970
620.0	-3.964
620.5	-3.959
621.0	-3.957
621.5	-3.950
622.0	-3.946
622.5	-3.949
623.0	-3.959
623.5	-3.968
624.0	-3.968
624.5	-3.959
625.0	-3.960
625.5	-3.966
626.0	-3.970
626.5	-3.964
627.0	-3.959
627.5	-3.965
628.0	-3.960
628.5	-3.958
629.0	-3.956
629.5	-3.956
630.0	-3.964
630.5	-3.967
631.0	-3.969
631.5	-3.955
632.0	-3.949
632.5	-3.953
633.0	-3.956
633.5	-3.960
634.0	-3.968
634.5	-3.973
635.0	-3.972
635.5	-3.970
636.0	-3.957
636.5	-3.946
637.0	-3.943
637.5	-3.954
638.0	-3.968
638.5	-3.971
639.0	-3.975
639.5	-3.981
640.0	-3.984
640.5	-3.980
641.0	-3.974
641.5	-3.977
642.0	-3.983
642.5	-3.993
643.0	-3.995
643.5	-3.987
644.0	-3.977
644.5	-3.976
645.0	-3.971
645.5	-3.955
646.0	-3.946
646.5	-3.939
647.0	-3.941
647.5	-3.940
648.0	-3.943
648.5	-3.942
649.0	-3.936
649.5	-3.942
650.0	-3.947
650.5	-3.946
651.0	-3.948
651.5	-3.960
652.0	-3.967
652.5	-3.980
653.0	-3.990
653.5	-3.992
654.0	-3.984
654.5	-3.979
655.0	-3.971
655.5	-3.953
656.0	-3.940
656.5	-3.933
657.0	-3.926
657.5	-3.929
658.0	-3.929
658.5	-3.927
659.0	-3.934
659.5	-3.947
660.0	-3.964
660.5	-3.968
661.0	-3.962
661.5	-3.955
662.0	-3.951
662.5	-3.952
663.0	-3.951
663.5	-3.957
664.0	-3.976
664.5	-3.991
665.0	-4.016
665.5	-4.020
666.0	-4.009
666.5	-3.985
667.0	-3.965
667.5	-3.955
668.0	-3.947
668.5	-3.936
669.0	-3.940
669.5	-3.941
670.0	-3.950
670.5	-3.965
671.0	-3.969
671.5	-3.966
672.0	-3.967
672.5	-3.968
673.0	-3.968
673.5	-3.957
674.0	-3.957
674.5	-3.955
675.0	-3.956
675.5	-3.961
676.0	-3.965
676.5	-3.970
677.0	-3.976
677.5	-3.976
678.0	-3.977
678.5	-3.979
679.0	-3.981
679.5	-3.985
680.0	-3.979
680.5	-3.971
681.0	-3.964
681.5	-3.965
682.0	-3.962
682.5	-3.961
683.0	-3.959
683.5	-3.963
684.0	-3.969
684.5	-3.975
685.0	-3.975
685.5	-3.982
686.0	-3.983
686.5	-3.988
687.0	-3.987
687.5	-3.987
688.0	-3.983
688.5	-3.971
689.0	-3.962
689.5	-3.958
690.0	-3.961
690.5	-3.971
691.0	-3.975
691.5	-3.979
692.0	-3.987
692.5	-3.996
693.0	-4.005
693.5	-4.003
694.0	-4.006
694.5	-4.019
695.0	-4.030
695.5	-4.034
696.0	-4.029
696.5	-4.028
697.0	-4.025
697.5	-4.023
698.0	-4.016
698.5	-4.007
699.0	-4.000
699.5	-3.996
700.0	-3.986
700.5	-3.971
701.0	-3.962
701.5	-3.959
702.0	-3.960
702.5	-3.965
703.0	-3.973
703.5	-3.979
704.0	-3.983
704.5	-3.977
705.0	-3.968
705.5	-3.956
706.0	-3.953
706.5	-3.951
707.0	-3.957
707.5	-3.964
708.0	-3.975
708.5	-3.973
709.0	-3.976
709.5	-3.977
710.0	-3.986
710.5	-3.992
711.0	-4.000
711.5	-4.007
712.0	-4.018
712.5	-4.032
713.0	-4.039
713.5	-4.036
714.0	-4.036
714.5	-4.023
715.0	-4.017
715.5	-4.000
716.0	-3.988
716.5	-3.986
717.0	-3.992
717.5	-4.004
718.0	-4.005
718.5	-3.997
719.0	-3.980
719.5	-3.951
720.0	-3.938
720.5	-3.922
721.0	-3.919
721.5	-3.924
722.0	-3.935
722.5	-3.950
723.0	-3.965
723.5	-3.976
724.0	-3.985
724.5	-3.989
725.0	-3.991
725.5	-3.997
726.0	-3.999
726.5	-4.000
727.0	-3.991
727.5	-3.989
728.0	-3.990
728.5	-3.990
729.0	-3.987
729.5	-3.984
730.0	-3.978
730.5	-3.983
731.0	-3.989
731.5	-3.989
732.0	-3.988
732.5	-3.994
733.0	-3.996
733.5	-3.999
734.0	-4.004
734.5	-4.016
735.0	-4.023
735.5	-4.034
736.0	-4.044
736.5	-4.051
737.0	-4.056
737.5	-4.058
738.0	-4.038
738.5	-4.019
739.0	-3.998
739.5	-3.980
740.0	-3.972
740.5	-3.965
741.0	-3.964
741.5	-3.964
742.0	-3.968
742.5	-3.978
743.0	-3.971
743.5	-3.967
744.0	-3.962
744.5	-3.963
745.0	-3.976
745.5	-3.977
746.0	-3.976
746.5	-3.973
747.0	-3.974
747.5	-3.977
748.0	-3.982
748.5	-3.980
749.0	-3.984
749.5	-3.994
750.0	-4.000
750.5	-4.000
751.0	-4.005
751.5	-4.015
752.0	-4.031
752.5	-4.044
753.0	-4.049
753.5	-4.046
754.0	-4.037
754.5	-4.025
755.0	-4.004
755.5	-3.989
756.0	-3.978
756.5	-3.978
757.0	-3.979
757.5	-3.972
758.0	-3.971
758.5	-3.969
759.0	-3.958
759.5	-3.947
760.0	-3.941
760.5	-3.939
761.0	-3.945
761.5	-3.963
762.0	-3.979
762.5	-3.984
763.0	-4.004
763.5	-4.014
764.0	-4.018
764.5	-4.020
765.0	-4.014
765.5	-4.011
766.0	-4.012
766.5	-4.015
767.0	-4.006
767.5	-4.000
768.0	-4.009
768.5	-4.015
769.0	-4.018
769.5	-4.021
770.0	-4.021
770.5	-4.029
771.0	-4.028
771.5	-4.030
772.0	-4.032
772.5	-4.038
773.0	-4.049
773.5	-4.044
774.0	-4.029
774.5	-4.018
775.0	-4.005
775.5	-3.992
776.0	-3.976
776.5	-3.968
777.0	-3.971
777.5	-3.976
778.0	-3.982
778.5	-3.962
779.0	-3.951
779.5	-3.954
780.0	-3.975
780.5	-4.000
781.0	-4.013
781.5	-4.022
782.0	-4.034
782.5	-4.038
783.0	-4.014
783.5	-3.979
784.0	-3.960
784.5	-3.963
785.0	-3.977
785.5	-4.001
786.0	-4.009
786.5	-4.023
787.0	-4.031
787.5	-4.032
788.0	-4.014
788.5	-4.010
789.0	-4.011
789.5	-4.014
790.0	-4.011
790.5	-4.019
791.0	-4.005
791.5	-4.002
792.0	-3.992
792.5	-3.989
793.0	-3.987
793.5	-3.998
794.0	-4.013
794.5	-4.025
795.0	-4.028
795.5	-4.021
796.0	-4.012
796.5	-4.008
797.0	-4.010
797.5	-4.006
798.0	-4.008
798.5	-4.006
799.0	-3.998
799.5	-4.000
800.0	-4.000
800.5	-4.006
801.0	-4.010
801.5	-4.009
802.0	-4.006
802.5	-4.001
803.0	-3.998
803.5	-3.988
804.0	-3.982
804.5	-4.004
805.0	-4.027
805.5	-4.052
806.0	-4.053
806.5	-4.048
807.0	-4.042
807.5	-4.039
808.0	-4.019
808.5	-3.996
809.0	-3.971
809.5	-3.973
810.0	-3.962
810.5	-3.955
811.0	-3.934
811.5	-3.936
812.0	-3.941
812.5	-3.948
813.0	-3.961
813.5	-3.968
814.0	-3.977
814.5	-3.996
815.0	-4.004
815.5	-4.020
816.0	-4.030
816.5	-4.049
817.0	-4.043
817.5	-4.052
818.0	-4.062
818.5	-4.061
819.0	-4.058
819.5	-4.058
820.0	-4.061
820.5	-4.059
821.0	-4.039
821.5	-4.022
822.0	-4.001
822.5	-3.999
823.0	-3.991
823.5	-3.992
824.0	-4.006
824.5	-4.023
825.0	-4.041
825.5	-4.041
826.0	-4.025
826.5	-4.011
827.0	-3.996
827.5	-3.976
828.0	-3.956
828.5	-3.942
829.0	-3.941
829.5	-3.946
830.0	-3.949
830.5	-3.944
831.0	-3.937
831.5	-3.941
832.0	-3.942
832.5	-3.949
833.0	-3.963
833.5	-3.994
834.0	-4.021
834.5	-4.042
835.0	-4.043
835.5	-4.035
836.0	-4.037
836.5	-4.035
837.0	-4.015
837.5	-4.007
838.0	-4.002
838.5	-4.011
839.0	-4.014
839.5	-4.021
840.0	-4.028
840.5	-4.037
841.0	-4.054
841.5	-4.054
842.0	-4.055
842.5	-4.054
843.0	-4.032
843.5	-4.012
844.0	-3.993
844.5	-3.992
845.0	-3.981
845.5	-4.002
846.0	-4.002
846.5	-4.011
847.0	-4.018
847.5	-4.017
848.0	-4.009
848.5	-4.006
849.0	-4.002
849.5	-4.006
850.0	-4.007


Sample 2
5/10/2022 11:46 AM
Wavelength (nm)	10mm Absorbance
//WLCalib: Shift 	0.17333	
//WLCalib: 261S 	-0.08000	
//WLCalib: 362S 	-0.30000	
//WLCalib: 484S 	0.09000	
//WLCalib: 529S 	0.09000	
//WLCalib: 823S 	-0.38000	
//QSpecEnd: 
190.0	-0.292
190.5	-0.106
191.0	-0.043
191.5	0.058
192.0	0.085
192.5	0.170
193.0	0.237
193.5	0.106
194.0	-0.129
194.5	-0.208
195.0	-0.256
195.5	-0.472
196.0	-0.329
196.5	-0.081
197.0	0.093
197.5	0.225
198.0	0.505
198.5	0.611
199.0	0.618
199.5	0.487
200.0	0.254
200.5	0.079
201.0	0.216
201.5	0.173
202.0	0.107
202.5	0.014
203.0	0.098
203.5	0.092
204.0	0.070
204.5	0.034
205.0	-0.028
205.5	0.046
206.0	0.012
206.5	-0.017
207.0	-0.026
207.5	-0.187
208.0	-0.065
208.5	0.057
209.0	0.151
209.5	0.213
210.0	0.336
210.5	0.271
211.0	0.145
211.5	0.025
212.0	-0.111
212.5	-0.277
213.0	-0.144
213.5	-0.119
214.0	-0.076
214.5	-0.016
215.0	0.071
215.5	0.000
216.0	0.000
216.5	0.000
217.0	0.000
217.5	0.000
218.0	0.000
218.5	0.000
219.0	0.000
219.5	0.000
220.0	0.000
220.5	0.000
221.0	0.000
221.5	0.000
222.0	0.000
222.5	0.000
223.0	0.000
223.5	0.000
224.0	0.000
224.5	0.000
225.0	0.000
225.5	0.000
226.0	0.000
226.5	0.000
227.0	0.000
227.5	0.000
228.0	0.000
228.5	0.000
229.0	0.001
229.5	-0.016
230.0	-0.006
230.5	0.016
231.0	0.032
231.5	0.043
232.0	0.048
232.5	0.047
233.0	0.041
233.5	0.029
234.0	0.011
234.5	-0.017
235.0	-0.002
235.5	0.000
236.0	0.000
236.5	0.000
237.0	0.000
237.5	0.000
238.0	0.000
238.5	0.000
239.0	0.000
239.5	0.000
240.0	0.000
240.5	0.000
241.0	0.000
241.5	0.000
242.0	0.000
242.5	0.000
243.0	0.000
243.5	0.000
244.0	0.000
244.5	0.000
245.0	0.000
245.5	0.000
246.0	0.000
246.5	0.000
247.0	0.000
247.5	0.000
248.0	0.000
248.5	0.000
249.0	0.000
249.5	0.000
250.0	0.000
250.5	0.000
251.0	0.000
251.5	0.000
252.0	-0.004
252.5	-0.003
253.0	0.005
253.5	0.011
254.0	0.015
254.5	0.018
255.0	0.018
255.5	0.016
256.0	0.012
256.5	0.005
257.0	-0.004
257.5	-0.002
258.0	0.000
258.5	0.000
259.0	0.000
259.5	0.000
260.0	0.000
260.5	0.000
261.0	0.005
261.5	-0.036
262.0	-0.002
262.5	0.034
263.0	0.060
263.5	0.076
264.0	0.083
264.5	0.080
265.0	0.068
265.5	0.045
266.0	0.014
266.5	-0.036
267.0	0.000
267.5	0.000
268.0	0.000
268.5	0.000
269.0	0.000
269.5	0.000
270.0	0.000
270.5	0.000
271.0	0.000
271.5	0.000
272.0	0.000
272.5	0.000
273.0	0.000
273.5	0.000
274.0	0.000
274.5	0.000
275.0	0.000
275.5	0.000
276.0	0.000
276.5	0.000
277.0	0.000
277.5	0.000
278.0	0.000
278.5	0.000
279.0	0.000
279.5	0.000
280.0	0.000
280.5	0.000
281.0	0.000
281.5	0.000
282.0	0.000
282.5	0.000
283.0	0.000
283.5	0.000
284.0	0.000
284.5	0.000
285.0	0.000
285.5	0.000
286.0	0.000
286.5	0.000
287.0	0.000
287.5	-0.002
288.0	-0.044
288.5	0.037
289.0	-0.054
289.5	-0.133
290.0	0.103
290.5	0.380
291.0	0.794
291.5	1.537
292.0	2.700
292.5	4.143
293.0	5.687
293.5	7.216
294.0	8.274
294.5	9.035
295.0	9.508
295.5	9.348
296.0	8.879
296.5	8.308
297.0	7.814
297.5	7.330
298.0	6.912
298.5	6.569
299.0	6.217
299.5	5.897
300.0	5.540
300.5	5.152
301.0	4.689
301.5	4.452
302.0	4.118
302.5	3.046
303.0	1.535
303.5	0.035
304.0	-1.349
304.5	-2.378
305.0	-3.006
305.5	-3.070
306.0	-2.591
306.5	-1.471
307.0	-0.566
307.5	-0.184
308.0	0.077
308.5	0.302
309.0	0.344
309.5	0.333
310.0	0.219
310.5	0.067
311.0	-0.112
311.5	-0.247
312.0	-0.318
312.5	-0.308
313.0	-0.211
313.5	-0.037
314.0	0.181
314.5	0.435
315.0	0.677
315.5	0.905
316.0	1.090
316.5	1.253
317.0	1.384
317.5	1.481
318.0	1.548
318.5	1.595
319.0	1.614
319.5	1.621
320.0	1.611
320.5	1.600
321.0	1.580
321.5	1.554
322.0	1.528
322.5	1.498
323.0	1.470
323.5	1.445
324.0	1.418
324.5	1.394
325.0	1.380
325.5	1.377
326.0	1.371
326.5	1.356
327.0	1.346
327.5	1.333
328.0	1.320
328.5	1.301
329.0	1.273
329.5	1.243
330.0	1.222
330.5	1.200
331.0	1.171
331.5	1.140
332.0	1.116
332.5	1.095
333.0	1.074
333.5	1.053
334.0	1.031
334.5	1.011
335.0	0.991
335.5	0.970
336.0	0.948
336.5	0.924
337.0	0.905
337.5	0.888
338.0	0.864
338.5	0.844
339.0	0.828
339.5	0.810
340.0	0.794
340.5	0.778
341.0	0.765
341.5	0.748
342.0	0.736
342.5	0.726
343.0	0.713
343.5	0.706
344.0	0.702
344.5	0.696
345.0	0.689
345.5	0.677
346.0	0.668
346.5	0.656
347.0	0.645
347.5	0.635
348.0	0.622
348.5	0.617
349.0	0.614
349.5	0.609
350.0	0.602
350.5	0.593
351.0	0.589
351.5	0.585
352.0	0.582
352.5	0.582
353.0	0.577
353.5	0.575
354.0	0.570
354.5	0.560
355.0	0.551
355.5	0.544
356.0	0.542
356.5	0.536
357.0	0.530
357.5	0.531
358.0	0.528
358.5	0.524
359.0	0.518
359.5	0.506
360.0	0.501
360.5	0.504
361.0	0.505
361.5	0.502
362.0	0.494
362.5	0.493
363.0	0.490
363.5	0.484
364.0	0.476
364.5	0.467
365.0	0.462
365.5	0.462
366.0	0.467
366.5	0.467
367.0	0.463
367.5	0.458
368.0	0.452
368.5	0.444
369.0	0.437
369.5	0.429
370.0	0.417
370.5	0.412
371.0	0.415
371.5	0.412
372.0	0.407
372.5	0.397
373.0	0.391
373.5	0.385
374.0	0.380
374.5	0.373
375.0	0.368
375.5	0.364
376.0	0.362
376.5	0.361
377.0	0.362
377.5	0.359
378.0	0.356
378.5	0.354
379.0	0.352
379.5	0.348
380.0	0.342
380.5	0.328
381.0	0.320
381.5	0.312
382.0	0.311
382.5	0.308
383.0	0.309
383.5	0.309
384.0	0.309
384.5	0.307
385.0	0.299
385.5	0.288
386.0	0.279
386.5	0.270
387.0	0.266
387.5	0.263
388.0	0.261
388.5	0.258
389.0	0.261
389.5	0.261
390.0	0.257
390.5	0.249
391.0	0.238
391.5	0.235
392.0	0.228
392.5	0.223
393.0	0.221
393.5	0.217
394.0	0.216
394.5	0.212
395.0	0.208
395.5	0.196
396.0	0.189
396.5	0.186
397.0	0.179
397.5	0.176
398.0	0.177
398.5	0.175
399.0	0.174
399.5	0.174
400.0	0.173
400.5	0.170
401.0	0.170
401.5	0.161
402.0	0.155
402.5	0.148
403.0	0.146
403.5	0.146
404.0	0.148
404.5	0.149
405.0	0.147
405.5	0.148
406.0	0.142
406.5	0.134
407.0	0.129
407.5	0.123
408.0	0.124
408.5	0.123
409.0	0.124
409.5	0.124
410.0	0.123
410.5	0.123
411.0	0.123
411.5	0.121
412.0	0.119
412.5	0.116
413.0	0.113
413.5	0.105
414.0	0.099
414.5	0.095
415.0	0.093
415.5	0.091
416.0	0.092
416.5	0.090
417.0	0.091
417.5	0.090
418.0	0.087
418.5	0.086
419.0	0.088
419.5	0.085
420.0	0.087
420.5	0.091
421.0	0.090
421.5	0.090
422.0	0.087
422.5	0.081
423.0	0.078
423.5	0.077
424.0	0.071
424.5	0.066
425.0	0.069
425.5	0.072
426.0	0.068
426.5	0.071
427.0	0.070
427.5	0.067
428.0	0.065
428.5	0.064
429.0	0.064
429.5	0.067
430.0	0.070
430.5	0.069
431.0	0.071
431.5	0.073
432.0	0.070
432.5	0.060
433.0	0.053
433.5	0.054
434.0	0.057
434.5	0.061
435.0	0.060
435.5	0.060
436.0	0.065
436.5	0.064
437.0	0.062
437.5	0.054
438.0	0.048
438.5	0.047
439.0	0.045
439.5	0.043
440.0	0.038
440.5	0.034
441.0	0.034
441.5	0.032
442.0	0.032
442.5	0.031
443.0	0.032
443.5	0.032
444.0	0.034
444.5	0.037
445.0	0.035
445.5	0.034
446.0	0.034
446.5	0.032
447.0	0.031
447.5	0.031
448.0	0.031
448.5	0.028
449.0	0.026
449.5	0.023
450.0	0.021
450.5	0.024
451.0	0.030
451.5	0.033
452.0	0.037
452.5	0.041
453.0	0.041
453.5	0.038
454.0	0.032
454.5	0.027
455.0	0.027
455.5	0.027
456.0	0.026
456.5	0.026
457.0	0.025
457.5	0.026
458.0	0.026
458.5	0.026
459.0	0.025
459.5	0.024
460.0	0.024
460.5	0.025
461.0	0.026
461.5	0.025
462.0	0.024
462.5	0.025
463.0	0.027
463.5	0.029
464.0	0.027
464.5	0.025
465.0	0.027
465.5	0.030
466.0	0.032
466.5	0.032
467.0	0.028
467.5	0.024
468.0	0.018
468.5	0.011
469.0	0.009
469.5	0.006
470.0	0.009
470.5	0.014
471.0	0.017
471.5	0.020
472.0	0.023
472.5	0.024
473.0	0.023
473.5	0.024
474.0	0.027
474.5	0.023
475.0	0.021
475.5	0.020
476.0	0.016
476.5	0.014
477.0	0.012
477.5	0.011
478.0	0.010
478.5	0.010
479.0	0.011
479.5	0.009
480.0	0.011
480.5	0.010
481.0	0.008
481.5	0.009
482.0	0.005
482.5	0.002
483.0	0.000
483.5	0.000
484.0	-0.001
484.5	0.004
485.0	0.008
485.5	0.010
486.0	0.014
486.5	0.017
487.0	0.016
487.5	0.016
488.0	0.014
488.5	0.011
489.0	0.008
489.5	0.010
490.0	0.009
490.5	0.010
491.0	0.012
491.5	0.012
492.0	0.010
492.5	0.008
493.0	0.005
493.5	0.008
494.0	0.009
494.5	0.012
495.0	0.020
495.5	0.022
496.0	0.022
496.5	0.019
497.0	0.015
497.5	0.012
498.0	0.014
498.5	0.018
499.0	0.021
499.5	0.028
500.0	0.032
500.5	0.027
501.0	0.019
501.5	0.012
502.0	0.007
502.5	0.006
503.0	0.007
503.5	0.008
504.0	0.008
504.5	0.010
505.0	0.012
505.5	0.010
506.0	0.006
506.5	0.009
507.0	0.009
507.5	0.009
508.0	0.009
508.5	0.006
509.0	0.010
509.5	0.009
510.0	0.011
510.5	0.009
511.0	0.008
511.5	0.006
512.0	0.004
512.5	0.003
513.0	0.006
513.5	0.009
514.0	0.014
514.5	0.012
515.0	0.014
515.5	0.015
516.0	0.015
516.5	0.016
517.0	0.014
517.5	0.012
518.0	0.014
518.5	0.015
519.0	0.015
519.5	0.016
520.0	0.020
520.5	0.022
521.0	0.021
521.5	0.020
522.0	0.017
522.5	0.013
523.0	0.012
523.5	0.010
524.0	0.008
524.5	0.007
525.0	0.005
525.5	0.002
526.0	0.000
526.5	0.003
527.0	0.004
527.5	0.005
528.0	0.005
528.5	0.005
529.0	0.000
529.5	-0.004
530.0	-0.008
530.5	-0.010
531.0	-0.006
531.5	0.003
532.0	0.008
532.5	0.011
533.0	0.014
533.5	0.013
534.0	0.010
534.5	0.004
535.0	-0.005
535.5	-0.011
536.0	-0.013
536.5	-0.011
537.0	-0.009
537.5	-0.007
538.0	-0.007
538.5	-0.005
539.0	-0.004
539.5	-0.003
540.0	-0.001
540.5	0.002
541.0	0.002
541.5	0.002
542.0	0.002
542.5	0.002
543.0	-0.001
543.5	-0.002
544.0	-0.005
544.5	-0.003
545.0	-0.001
545.5	0.004
546.0	0.005
546.5	0.003
547.0	0.002
547.5	0.002
548.0	0.001
548.5	0.001
549.0	-0.005
549.5	-0.008
550.0	-0.008
550.5	-0.005
551.0	-0.005
551.5	-0.003
552.0	-0.002
552.5	0.000
553.0	0.005
553.5	0.002
554.0	-0.004
554.5	-0.006
555.0	-0.007
555.5	-0.005
556.0	-0.007
556.5	-0.006
557.0	0.000
557.5	0.006
558.0	0.013
558.5	0.013
559.0	0.010
559.5	0.008
560.0	0.003
560.5	0.002
561.0	0.000
561.5	-0.002
562.0	-0.001
562.5	0.002
563.0	0.006
563.5	0.005
564.0	0.001
564.5	-0.003
565.0	-0.010
565.5	-0.012
566.0	-0.012
566.5	-0.008
567.0	-0.007
567.5	0.000
568.0	0.008
568.5	0.011
569.0	0.012
569.5	0.014
570.0	0.008
570.5	0.005
571.0	0.003
571.5	0.003
572.0	0.000
572.5	0.000
573.0	0.001
573.5	-0.001
574.0	-0.002
574.5	0.000
575.0	-0.003
575.5	-0.004
576.0	-0.005
576.5	-0.008
577.0	-0.007
577.5	-0.007
578.0	-0.004
578.5	0.001
579.0	0.006
579.5	0.010
580.0	0.011
580.5	0.012
581.0	0.013
581.5	0.009
582.0	0.008
582.5	0.006
583.0	0.001
583.5	0.002
584.0	-0.005
584.5	-0.006
585.0	-0.007
585.5	-0.009
586.0	-0.012
586.5	-0.018
587.0	-0.022
587.5	-0.023
588.0	-0.027
588.5	-0.022
589.0	-0.020
589.5	-0.009
590.0	0.004
590.5	0.010
591.0	0.012
591.5	0.008
592.0	0.004
592.5	0.003
593.0	-0.002
593.5	-0.005
594.0	-0.006
594.5	-0.003
595.0	0.000
595.5	0.001
596.0	0.003
596.5	0.003
597.0	0.003
597.5	0.000
598.0	-0.006
598.5	-0.007
599.0	-0.008
599.5	-0.006
600.0	-0.008
600.5	-0.006
601.0	-0.001
601.5	-0.002
602.0	-0.008
602.5	-0.014
603.0	-0.021
603.5	-0.021
604.0	-0.021
604.5	-0.024
605.0	-0.027
605.5	-0.026
606.0	-0.023
606.5	-0.023
607.0	-0.020
607.5	-0.019
608.0	-0.017
608.5	-0.013
609.0	-0.005
609.5	-0.003
610.0	0.001
610.5	0.005
611.0	0.005
611.5	0.004
612.0	0.003
612.5	-0.005
613.0	-0.011
613.5	-0.015
614.0	-0.012
614.5	-0.014
615.0	-0.009
615.5	-0.003
616.0	0.000
616.5	0.001
617.0	0.005
617.5	0.007
618.0	0.006
618.5	0.000
619.0	-0.005
619.5	-0.009
620.0	-0.010
620.5	-0.010
621.0	-0.015
621.5	-0.019
622.0	-0.019
622.5	-0.019
623.0	-0.020
623.5	-0.027
624.0	-0.021
624.5	-0.018
625.0	-0.014
625.5	-0.010
626.0	-0.011
626.5	-0.008
627.0	-0.006
627.5	-0.007
628.0	-0.005
628.5	-0.007
629.0	-0.003
629.5	-0.008
630.0	-0.006
630.5	-0.006
631.0	-0.007
631.5	-0.003
632.0	-0.003
632.5	-0.004
633.0	0.002
633.5	0.001
634.0	0.000
634.5	0.003
635.0	0.007
635.5	0.004
636.0	0.004
636.5	0.003
637.0	0.001
637.5	0.002
638.0	0.005
638.5	-0.001
639.0	-0.002
639.5	0.001
640.0	0.002
640.5	-0.004
641.0	0.001
641.5	-0.001
642.0	0.002
642.5	0.005
643.0	-0.004
643.5	-0.009
644.0	-0.013
644.5	-0.015
645.0	-0.018
645.5	-0.022
646.0	-0.017
646.5	-0.019
647.0	-0.013
647.5	-0.009
648.0	-0.013
648.5	-0.008
649.0	-0.010
649.5	-0.004
650.0	-0.007
650.5	-0.008
651.0	-0.010
651.5	-0.010
652.0	-0.009
652.5	-0.005
653.0	-0.007
653.5	-0.003
654.0	-0.006
654.5	-0.002
655.0	-0.010
655.5	-0.017
656.0	-0.022
656.5	-0.022
657.0	-0.021
657.5	-0.013
658.0	-0.005
658.5	0.002
659.0	0.002
659.5	0.009
660.0	0.013
660.5	0.012
661.0	0.013
661.5	0.010
662.0	0.012
662.5	0.011
663.0	0.008
663.5	-0.004
664.0	-0.015
664.5	-0.024
665.0	-0.031
665.5	-0.039
666.0	-0.042
666.5	-0.040
667.0	-0.030
667.5	-0.026
668.0	-0.021
668.5	-0.017
669.0	-0.015
669.5	-0.014
670.0	-0.013
670.5	-0.011
671.0	-0.004
671.5	0.001
672.0	0.006
672.5	0.009
673.0	0.005
673.5	-0.002
674.0	-0.007
674.5	-0.014
675.0	-0.020
675.5	-0.019
676.0	-0.016
676.5	-0.017
677.0	-0.018
677.5	-0.014
678.0	-0.019
678.5	-0.020
679.0	-0.018
679.5	-0.017
680.0	-0.012
680.5	-0.001
681.0	0.003
681.5	0.009
682.0	0.005
682.5	0.001
683.0	-0.006
683.5	-0.015
684.0	-0.023
684.5	-0.027
685.0	-0.026
685.5	-0.026
686.0	-0.022
686.5	-0.011
687.0	-0.014
687.5	-0.015
688.0	-0.013
688.5	-0.012
689.0	-0.003
689.5	0.005
690.0	0.008
690.5	0.006
691.0	0.016
691.5	0.019
692.0	0.009
692.5	-0.007
693.0	-0.021
693.5	-0.029
694.0	-0.029
694.5	-0.025
695.0	-0.032
695.5	-0.027
696.0	-0.020
696.5	-0.016
697.0	-0.017
697.5	-0.010
698.0	-0.001
698.5	0.008
699.0	0.021
699.5	0.033
700.0	0.030
700.5	0.029
701.0	0.023
701.5	0.020
702.0	0.014
702.5	0.011
703.0	0.008
703.5	0.002
704.0	0.003
704.5	-0.002
705.0	-0.012
705.5	-0.023
706.0	-0.028
706.5	-0.028
707.0	-0.023
707.5	-0.023
708.0	-0.016
708.5	-0.006
709.0	0.005
709.5	0.009
710.0	0.013
710.5	0.015
711.0	0.011
711.5	0.005
712.0	0.006
712.5	0.005
713.0	0.009
713.5	0.013
714.0	0.011
714.5	0.013
715.0	0.010
715.5	0.005
716.0	-0.002
716.5	-0.010
717.0	-0.017
717.5	-0.018
718.0	-0.012
718.5	-0.005
719.0	0.007
719.5	0.015
720.0	0.017
720.5	0.010
721.0	0.006
721.5	-0.005
722.0	-0.017
722.5	-0.026
723.0	-0.031
723.5	-0.030
724.0	-0.020
724.5	-0.016
725.0	-0.009
725.5	-0.012
726.0	-0.007
726.5	0.007
727.0	0.021
727.5	0.027
728.0	0.026
728.5	0.020
729.0	0.013
729.5	0.005
730.0	-0.007
730.5	-0.016
731.0	-0.019
731.5	-0.016
732.0	-0.020
732.5	-0.028
733.0	-0.034
733.5	-0.039
734.0	-0.041
734.5	-0.034
735.0	-0.029
735.5	-0.024
736.0	-0.014
736.5	-0.017
737.0	-0.020
737.5	-0.026
738.0	-0.029
738.5	-0.029
739.0	-0.023
739.5	-0.014
740.0	-0.011
740.5	-0.010
741.0	-0.010
741.5	-0.009
742.0	-0.002
742.5	-0.002
743.0	-0.014
743.5	-0.019
744.0	-0.025
744.5	-0.023
745.0	-0.023
745.5	-0.023
746.0	-0.029
746.5	-0.019
747.0	-0.004
747.5	0.004
748.0	0.003
748.5	0.009
749.0	0.007
749.5	0.007
750.0	-0.002
750.5	-0.014
751.0	-0.029
751.5	-0.022
752.0	-0.011
752.5	-0.008
753.0	-0.001
753.5	-0.001
754.0	-0.010
754.5	-0.026
755.0	-0.044
755.5	-0.057
756.0	-0.057
756.5	-0.045
757.0	-0.033
757.5	-0.019
758.0	-0.010
758.5	-0.009
759.0	-0.010
759.5	-0.008
760.0	-0.008
760.5	-0.005
761.0	0.005
761.5	0.013
762.0	0.020
762.5	0.018
763.0	0.013
763.5	0.010
764.0	0.004
764.5	0.007
765.0	0.004
765.5	0.002
766.0	0.001
766.5	0.007
767.0	0.000
767.5	-0.008
768.0	-0.013
768.5	-0.021
769.0	-0.027
769.5	-0.031
770.0	-0.039
770.5	-0.044
771.0	-0.052
771.5	-0.047
772.0	-0.046
772.5	-0.042
773.0	-0.027
773.5	-0.014
774.0	-0.001
774.5	0.002
775.0	0.008
775.5	0.011
776.0	0.000
776.5	0.001
777.0	-0.002
777.5	-0.010
778.0	-0.006
778.5	-0.013
779.0	-0.017
779.5	-0.021
780.0	-0.014
780.5	-0.013
781.0	-0.022
781.5	-0.018
782.0	-0.017
782.5	-0.017
783.0	-0.019
783.5	-0.018
784.0	-0.014
784.5	-0.011
785.0	-0.008
785.5	-0.015
786.0	-0.022
786.5	-0.022
787.0	-0.019
787.5	-0.018
788.0	-0.019
788.5	-0.007
789.0	-0.002
789.5	0.001
790.0	-0.001
790.5	-0.011
791.0	-0.019
791.5	-0.030
792.0	-0.039
792.5	-0.042
793.0	-0.040
793.5	-0.031
794.0	-0.020
794.5	-0.005
795.0	-0.003
795.5	0.000
796.0	0.000
796.5	-0.003
797.0	-0.007
797.5	-0.008
798.0	-0.002
798.5	-0.004
799.0	0.010
799.5	0.012
800.0	0.000
800.5	-0.007
801.0	-0.011
801.5	-0.020
802.0	-0.026
802.5	-0.025
803.0	-0.022
803.5	-0.016
804.0	-0.008
804.5	-0.019
805.0	-0.023
805.5	-0.026
806.0	-0.031
806.5	-0.029
807.0	-0.016
807.5	-0.011
808.0	-0.004
808.5	0.006
809.0	0.004
809.5	0.000
810.0	0.006
810.5	-0.002
811.0	-0.009
811.5	-0.009
812.0	-0.004
812.5	-0.006
813.0	0.000
813.5	0.000
814.0	-0.005
814.5	-0.003
815.0	-0.017
815.5	-0.022
816.0	-0.023
816.5	-0.027
817.0	-0.022
817.5	-0.016
818.0	-0.008
818.5	-0.006
819.0	-0.008
819.5	-0.017
820.0	-0.034
820.5	-0.039
821.0	-0.043
821.5	-0.040
822.0	-0.028
822.5	-0.011
823.0	0.003
823.5	0.010
824.0	0.016
824.5	0.012
825.0	0.015
825.5	0.010
826.0	0.005
826.5	0.004
827.0	-0.002
827.5	-0.012
828.0	-0.018
828.5	-0.021
829.0	-0.026
829.5	-0.029
830.0	-0.031
830.5	-0.033
831.0	-0.034
831.5	-0.030
832.0	-0.022
832.5	-0.016
833.0	-0.006
833.5	0.000
834.0	0.002
834.5	0.003
835.0	-0.008
835.5	-0.020
836.0	-0.030
836.5	-0.031
837.0	-0.026
837.5	-0.027
838.0	-0.024
838.5	-0.024
839.0	-0.021
839.5	-0.010
840.0	-0.015
840.5	-0.022
841.0	-0.027
841.5	-0.014
842.0	-0.010
842.5	-0.013
843.0	-0.009
843.5	-0.023
844.0	-0.032
844.5	-0.034
845.0	-0.041
845.5	-0.034
846.0	-0.030
846.5	-0.007
847.0	-0.008
847.5	0.002
848.0	-0.001
848.5	-0.032
849.0	-0.053
849.5	-0.054
850.0	-0.067


Sample 3
5/10/2022 11:47 AM
Wavelength (nm)	10mm Absorbance
//WLCalib: Shift 	0.17333	
//WLCalib: 261S 	-0.08000	
//WLCalib: 362S 	-0.30000	
//WLCalib: 484S 	0.09000	
//WLCalib: 529S 	0.09000	
//WLCalib: 823S 	-0.38000	
//QSpecEnd: 
190.0	-0.027
190.5	-0.072
191.0	0.050
191.5	0.366
192.0	0.559
192.5	0.664
193.0	0.716
193.5	0.542
194.0	0.141
194.5	-0.092
195.0	-0.096
195.5	-0.196
196.0	0.160
196.5	0.301
197.0	0.209
197.5	0.218
198.0	0.237
198.5	0.133
199.0	-0.078
199.5	-0.129
200.0	-0.007
200.5	0.037
201.0	0.163
201.5	-0.010
202.0	-0.037
202.5	-0.005
203.0	-0.007
203.5	0.005
204.0	-0.130
204.5	0.024
205.0	0.121
205.5	0.222
206.0	0.236
206.5	0.227
207.0	0.194
207.5	0.138
208.0	0.052
208.5	-0.051
209.0	-0.148
209.5	-0.014
210.0	0.098
210.5	0.048
211.0	-0.035
211.5	-0.085
212.0	-0.121
212.5	-0.142
213.0	-0.153
213.5	-0.123
214.0	-0.076
214.5	-0.016
215.0	0.071
215.5	0.000
216.0	0.000
216.5	0.000
217.0	0.000
217.5	0.000
218.0	0.000
218.5	0.000
219.0	0.000
219.5	0.000
220.0	0.000
220.5	0.000
221.0	0.000
221.5	0.000
222.0	0.000
222.5	0.000
223.0	0.000
223.5	0.000
224.0	0.000
224.5	0.000
225.0	0.000
225.5	0.000
226.0	0.000
226.5	0.000
227.0	0.000
227.5	0.000
228.0	0.000
228.5	0.000
229.0	0.000
229.5	0.000
230.0	0.000
230.5	0.000
231.0	0.000
231.5	0.000
232.0	0.000
232.5	0.000
233.0	0.000
233.5	0.000
234.0	0.000
234.5	0.000
235.0	0.000
235.5	0.000
236.0	0.000
236.5	0.000
237.0	0.000
237.5	0.000
238.0	0.000
238.5	0.000
239.0	0.000
239.5	0.000
240.0	0.000
240.5	0.000
241.0	0.000
241.5	0.000
242.0	0.000
242.5	0.000
243.0	0.000
243.5	0.000
244.0	0.000
244.5	0.000
245.0	0.000
245.5	0.000
246.0	0.000
246.5	0.000
247.0	0.000
247.5	0.000
248.0	0.000
248.5	0.000
249.0	0.000
249.5	-0.041
250.0	-0.030
250.5	0.048
251.0	0.106
251.5	0.145
252.0	0.164
252.5	0.164
253.0	0.145
253.5	0.106
254.0	0.048
254.5	-0.044
255.0	-0.018
255.5	0.000
256.0	0.000
256.5	0.000
257.0	0.000
257.5	0.000
258.0	0.000
258.5	0.000
259.0	0.000
259.5	0.000
260.0	0.000
260.5	0.000
261.0	0.000
261.5	0.000
262.0	0.000
262.5	0.000
263.0	0.000
263.5	0.000
264.0	0.000
264.5	0.000
265.0	0.000
265.5	0.000
266.0	0.000
266.5	0.000
267.0	0.000
267.5	0.000
268.0	0.000
268.5	0.013
269.0	-0.118
269.5	-0.025
270.0	-0.088
270.5	0.074
271.0	0.355
271.5	0.898
272.0	1.310
272.5	1.720
273.0	2.093
273.5	2.330
274.0	2.426
274.5	2.846
275.0	3.142
275.5	3.802
276.0	4.528
276.5	5.382
277.0	6.038
277.5	6.603
278.0	7.111
278.5	7.446
279.0	7.814
279.5	8.269
280.0	8.750
280.5	9.359
281.0	10.035
281.5	10.855
282.0	11.610
282.5	12.275
283.0	12.986
283.5	13.639
284.0	14.309
284.5	15.022
285.0	15.802
285.5	16.695
286.0	17.583
286.5	18.352
287.0	18.890
287.5	19.299
288.0	19.592
288.5	19.854
289.0	20.222
289.5	20.774
290.0	21.463
290.5	22.218
291.0	22.976
291.5	23.414
292.0	23.916
292.5	24.470
293.0	24.711
293.5	24.517
294.0	23.776
294.5	22.561
295.0	20.910
295.5	18.736
296.0	16.127
296.5	13.219
297.0	10.737
297.5	8.522
298.0	6.496
298.5	4.676
299.0	3.033
299.5	1.600
300.0	0.235
300.5	-1.290
301.0	-3.141
301.5	-4.989
302.0	-6.899
302.5	-9.155
303.0	-11.277
303.5	-12.829
304.0	-13.670
304.5	-13.695
305.0	-12.919
305.5	-11.530
306.0	-9.786
306.5	-7.730
307.0	-5.977
307.5	-4.839
308.0	-3.952
308.5	-3.256
309.0	-2.811
309.5	-2.513
310.0	-2.348
310.5	-2.268
311.0	-2.235
311.5	-2.172
312.0	-2.046
312.5	-1.828
313.0	-1.488
313.5	-1.062
314.0	-0.584
314.5	-0.079
315.0	0.412
315.5	0.858
316.0	1.239
316.5	1.567
317.0	1.833
317.5	2.060
318.0	2.251
318.5	2.398
319.0	2.512
319.5	2.593
320.0	2.644
320.5	2.678
321.0	2.691
321.5	2.702
322.0	2.706
322.5	2.709
323.0	2.709
323.5	2.709
324.0	2.709
324.5	2.704
325.0	2.703
325.5	2.706
326.0	2.708
326.5	2.711
327.0	2.714
327.5	2.709
328.0	2.710
328.5	2.701
329.0	2.685
329.5	2.662
330.0	2.642
330.5	2.619
331.0	2.596
331.5	2.561
332.0	2.534
332.5	2.507
333.0	2.491
333.5	2.468
334.0	2.450
334.5	2.428
335.0	2.402
335.5	2.368
336.0	2.337
336.5	2.305
337.0	2.280
337.5	2.260
338.0	2.235
338.5	2.213
339.0	2.200
339.5	2.184
340.0	2.159
340.5	2.132
341.0	2.112
341.5	2.089
342.0	2.068
342.5	2.048
343.0	2.026
343.5	2.013
344.0	2.004
344.5	1.991
345.0	1.971
345.5	1.951
346.0	1.930
346.5	1.907
347.0	1.889
347.5	1.869
348.0	1.852
348.5	1.839
349.0	1.828
349.5	1.812
350.0	1.796
350.5	1.780
351.0	1.765
351.5	1.754
352.0	1.746
352.5	1.735
353.0	1.727
353.5	1.719
354.0	1.706
354.5	1.688
355.0	1.673
355.5	1.659
356.0	1.646
356.5	1.634
357.0	1.620
357.5	1.609
358.0	1.600
358.5	1.589
359.0	1.574
359.5	1.559
360.0	1.552
360.5	1.546
361.0	1.541
361.5	1.535
362.0	1.525
362.5	1.521
363.0	1.513
363.5	1.501
364.0	1.486
364.5	1.474
365.0	1.464
365.5	1.455
366.0	1.456
366.5	1.452
367.0	1.445
367.5	1.431
368.0	1.420
368.5	1.402
369.0	1.386
369.5	1.372
370.0	1.358
370.5	1.352
371.0	1.356
371.5	1.355
372.0	1.351
372.5	1.341
373.0	1.336
373.5	1.327
374.0	1.314
374.5	1.304
375.0	1.299
375.5	1.297
376.0	1.292
376.5	1.284
377.0	1.278
377.5	1.271
378.0	1.260
378.5	1.253
379.0	1.238
379.5	1.232
380.0	1.226
380.5	1.213
381.0	1.199
381.5	1.189
382.0	1.187
382.5	1.184
383.0	1.182
383.5	1.184
384.0	1.183
384.5	1.181
385.0	1.171
385.5	1.162
386.0	1.148
386.5	1.137
387.0	1.127
387.5	1.118
388.0	1.115
388.5	1.112
389.0	1.114
389.5	1.110
390.0	1.100
390.5	1.094
391.0	1.082
391.5	1.075
392.0	1.065
392.5	1.060
393.0	1.057
393.5	1.053
394.0	1.050
394.5	1.040
395.0	1.030
395.5	1.021
396.0	1.012
396.5	1.005
397.0	0.996
397.5	0.994
398.0	0.993
398.5	0.993
399.0	0.991
399.5	0.988
400.0	0.985
400.5	0.983
401.0	0.975
401.5	0.967
402.0	0.958
402.5	0.949
403.0	0.947
403.5	0.944
404.0	0.942
404.5	0.944
405.0	0.941
405.5	0.938
406.0	0.931
406.5	0.925
407.0	0.911
407.5	0.902
408.0	0.899
408.5	0.895
409.0	0.891
409.5	0.892
410.0	0.889
410.5	0.888
411.0	0.888
411.5	0.885
412.0	0.879
412.5	0.876
413.0	0.869
413.5	0.859
414.0	0.852
414.5	0.850
415.0	0.848
415.5	0.847
416.0	0.845
416.5	0.841
417.0	0.838
417.5	0.833
418.0	0.825
418.5	0.819
419.0	0.819
419.5	0.818
420.0	0.813
420.5	0.812
421.0	0.809
421.5	0.807
422.0	0.802
422.5	0.795
423.0	0.789
423.5	0.781
424.0	0.773
424.5	0.766
425.0	0.764
425.5	0.764
426.0	0.764
426.5	0.767
427.0	0.766
427.5	0.764
428.0	0.763
428.5	0.759
429.0	0.755
429.5	0.756
430.0	0.754
430.5	0.748
431.0	0.745
431.5	0.743
432.0	0.737
432.5	0.734
433.0	0.729
433.5	0.727
434.0	0.728
434.5	0.728
435.0	0.723
435.5	0.719
436.0	0.719
436.5	0.716
437.0	0.714
437.5	0.711
438.0	0.708
438.5	0.705
439.0	0.701
439.5	0.697
440.0	0.689
440.5	0.683
441.0	0.679
441.5	0.678
442.0	0.676
442.5	0.673
443.0	0.672
443.5	0.670
444.0	0.668
444.5	0.669
445.0	0.665
445.5	0.660
446.0	0.658
446.5	0.653
447.0	0.648
447.5	0.643
448.0	0.638
448.5	0.634
449.0	0.629
449.5	0.627
450.0	0.625
450.5	0.626
451.0	0.629
451.5	0.628
452.0	0.632
452.5	0.633
453.0	0.632
453.5	0.628
454.0	0.624
454.5	0.619
455.0	0.617
455.5	0.613
456.0	0.609
456.5	0.604
457.0	0.598
457.5	0.593
458.0	0.587
458.5	0.582
459.0	0.580
459.5	0.580
460.0	0.582
460.5	0.584
461.0	0.590
461.5	0.590
462.0	0.588
462.5	0.588
463.0	0.586
463.5	0.583
464.0	0.578
464.5	0.572
465.0	0.566
465.5	0.564
466.0	0.564
466.5	0.562
467.0	0.561
467.5	0.561
468.0	0.558
468.5	0.552
469.0	0.550
469.5	0.544
470.0	0.542
470.5	0.540
471.0	0.540
471.5	0.540
472.0	0.541
472.5	0.540
473.0	0.538
473.5	0.536
474.0	0.539
474.5	0.537
475.0	0.536
475.5	0.535
476.0	0.531
476.5	0.528
477.0	0.522
477.5	0.518
478.0	0.511
478.5	0.506
479.0	0.503
479.5	0.501
480.0	0.504
480.5	0.504
481.0	0.503
481.5	0.505
482.0	0.504
482.5	0.503
483.0	0.498
483.5	0.496
484.0	0.491
484.5	0.491
485.0	0.492
485.5	0.488
486.0	0.490
486.5	0.490
487.0	0.492
487.5	0.490
488.0	0.485
488.5	0.480
489.0	0.474
489.5	0.473
490.0	0.476
490.5	0.480
491.0	0.484
491.5	0.484
492.0	0.485
492.5	0.482
493.0	0.474
493.5	0.471
494.0	0.466
494.5	0.466
495.0	0.470
495.5	0.472
496.0	0.470
496.5	0.466
497.0	0.466
497.5	0.465
498.0	0.464
498.5	0.467
499.0	0.469
499.5	0.473
500.0	0.474
500.5	0.467
501.0	0.459
501.5	0.452
502.0	0.450
502.5	0.448
503.0	0.447
503.5	0.447
504.0	0.445
504.5	0.446
505.0	0.442
505.5	0.436
506.0	0.431
506.5	0.430
507.0	0.431
507.5	0.433
508.0	0.432
508.5	0.429
509.0	0.426
509.5	0.424
510.0	0.424
510.5	0.422
511.0	0.419
511.5	0.415
512.0	0.412
512.5	0.416
513.0	0.418
513.5	0.420
514.0	0.420
514.5	0.418
515.0	0.419
515.5	0.416
516.0	0.411
516.5	0.406
517.0	0.403
517.5	0.404
518.0	0.407
518.5	0.413
519.0	0.418
519.5	0.425
520.0	0.427
520.5	0.427
521.0	0.423
521.5	0.416
522.0	0.409
522.5	0.402
523.0	0.401
523.5	0.403
524.0	0.402
524.5	0.401
525.0	0.396
525.5	0.392
526.0	0.391
526.5	0.389
527.0	0.386
527.5	0.383
528.0	0.383
528.5	0.386
529.0	0.383
529.5	0.379
530.0	0.375
530.5	0.376
531.0	0.382
531.5	0.383
532.0	0.384
532.5	0.383
533.0	0.385
533.5	0.389
534.0	0.389
534.5	0.384
535.0	0.381
535.5	0.377
536.0	0.370
536.5	0.363
537.0	0.363
537.5	0.362
538.0	0.360
538.5	0.360
539.0	0.361
539.5	0.359
540.0	0.362
540.5	0.363
541.0	0.359
541.5	0.353
542.0	0.353
542.5	0.355
543.0	0.353
543.5	0.354
544.0	0.352
544.5	0.353
545.0	0.356
545.5	0.359
546.0	0.360
546.5	0.357
547.0	0.359
547.5	0.365
548.0	0.366
548.5	0.366
549.0	0.361
549.5	0.356
550.0	0.349
550.5	0.348
551.0	0.345
551.5	0.344
552.0	0.348
552.5	0.351
553.0	0.353
553.5	0.350
554.0	0.350
554.5	0.350
555.0	0.349
555.5	0.350
556.0	0.344
556.5	0.341
557.0	0.345
557.5	0.346
558.0	0.350
558.5	0.348
559.0	0.349
559.5	0.353
560.0	0.355
560.5	0.353
561.0	0.347
561.5	0.344
562.0	0.345
562.5	0.345
563.0	0.346
563.5	0.341
564.0	0.337
564.5	0.335
565.0	0.328
565.5	0.320
566.0	0.316
566.5	0.319
567.0	0.323
567.5	0.330
568.0	0.337
568.5	0.343
569.0	0.343
569.5	0.344
570.0	0.334
570.5	0.327
571.0	0.324
571.5	0.323
572.0	0.322
572.5	0.321
573.0	0.322
573.5	0.322
574.0	0.323
574.5	0.326
575.0	0.322
575.5	0.317
576.0	0.314
576.5	0.310
577.0	0.312
577.5	0.308
578.0	0.308
578.5	0.311
579.0	0.313
579.5	0.312
580.0	0.310
580.5	0.305
581.0	0.306
581.5	0.306
582.0	0.315
582.5	0.316
583.0	0.316
583.5	0.319
584.0	0.313
584.5	0.311
585.0	0.307
585.5	0.303
586.0	0.300
586.5	0.295
587.0	0.293
587.5	0.290
588.0	0.283
588.5	0.284
589.0	0.282
589.5	0.287
590.0	0.297
590.5	0.302
591.0	0.304
591.5	0.301
592.0	0.299
592.5	0.300
593.0	0.297
593.5	0.296
594.0	0.297
594.5	0.300
595.0	0.303
595.5	0.303
596.0	0.301
596.5	0.291
597.0	0.289
597.5	0.287
598.0	0.281
598.5	0.277
599.0	0.277
599.5	0.279
600.0	0.279
600.5	0.280
601.0	0.281
601.5	0.280
602.0	0.279
602.5	0.274
603.0	0.269
603.5	0.266
604.0	0.264
604.5	0.258
605.0	0.252
605.5	0.250
606.0	0.251
606.5	0.253
607.0	0.255
607.5	0.254
608.0	0.256
608.5	0.261
609.0	0.268
609.5	0.270
610.0	0.272
610.5	0.279
611.0	0.277
611.5	0.276
612.0	0.272
612.5	0.261
613.0	0.253
613.5	0.248
614.0	0.250
614.5	0.252
615.0	0.253
615.5	0.258
616.0	0.263
616.5	0.268
617.0	0.269
617.5	0.269
618.0	0.268
618.5	0.260
619.0	0.254
619.5	0.249
620.0	0.244
620.5	0.241
621.0	0.239
621.5	0.240
622.0	0.239
622.5	0.239
623.0	0.238
623.5	0.234
624.0	0.238
624.5	0.237
625.0	0.241
625.5	0.244
626.0	0.246
626.5	0.253
627.0	0.256
627.5	0.252
628.0	0.252
628.5	0.250
629.0	0.249
629.5	0.244
630.0	0.248
630.5	0.249
631.0	0.242
631.5	0.241
632.0	0.243
632.5	0.241
633.0	0.239
633.5	0.236
634.0	0.239
634.5	0.242
635.0	0.243
635.5	0.240
636.0	0.238
636.5	0.237
637.0	0.241
637.5	0.242
638.0	0.242
638.5	0.241
639.0	0.245
639.5	0.245
640.0	0.243
640.5	0.239
641.0	0.241
641.5	0.240
642.0	0.240
642.5	0.239
643.0	0.232
643.5	0.228
644.0	0.223
644.5	0.223
645.0	0.224
645.5	0.223
646.0	0.227
646.5	0.225
647.0	0.227
647.5	0.225
648.0	0.224
648.5	0.225
649.0	0.227
649.5	0.231
650.0	0.232
650.5	0.231
651.0	0.229
651.5	0.223
652.0	0.217
652.5	0.213
653.0	0.214
653.5	0.211
654.0	0.215
654.5	0.218
655.0	0.219
655.5	0.220
656.0	0.218
656.5	0.210
657.0	0.204
657.5	0.207
658.0	0.214
658.5	0.217
659.0	0.221
659.5	0.229
660.0	0.244
660.5	0.252
661.0	0.251
661.5	0.247
662.0	0.244
662.5	0.238
663.0	0.225
663.5	0.211
664.0	0.200
664.5	0.189
665.0	0.192
665.5	0.189
666.0	0.192
666.5	0.197
667.0	0.205
667.5	0.205
668.0	0.206
668.5	0.212
669.0	0.217
669.5	0.212
670.0	0.212
670.5	0.209
671.0	0.212
671.5	0.217
672.0	0.221
672.5	0.223
673.0	0.227
673.5	0.232
674.0	0.230
674.5	0.223
675.0	0.214
675.5	0.206
676.0	0.196
676.5	0.191
677.0	0.183
677.5	0.187
678.0	0.190
678.5	0.195
679.0	0.203
679.5	0.210
680.0	0.216
680.5	0.221
681.0	0.218
681.5	0.218
682.0	0.207
682.5	0.194
683.0	0.180
683.5	0.168
684.0	0.159
684.5	0.158
685.0	0.161
685.5	0.169
686.0	0.180
686.5	0.196
687.0	0.203
687.5	0.206
688.0	0.212
688.5	0.217
689.0	0.214
689.5	0.214
690.0	0.208
690.5	0.211
691.0	0.218
691.5	0.223
692.0	0.217
692.5	0.201
693.0	0.187
693.5	0.173
694.0	0.160
694.5	0.159
695.0	0.157
695.5	0.164
696.0	0.176
696.5	0.183
697.0	0.183
697.5	0.185
698.0	0.192
698.5	0.200
699.0	0.220
699.5	0.241
700.0	0.242
700.5	0.235
701.0	0.225
701.5	0.218
702.0	0.207
702.5	0.200
703.0	0.194
703.5	0.196
704.0	0.205
704.5	0.204
705.0	0.190
705.5	0.173
706.0	0.166
706.5	0.168
707.0	0.174
707.5	0.175
708.0	0.182
708.5	0.195
709.0	0.205
709.5	0.209
710.0	0.203
710.5	0.196
711.0	0.190
711.5	0.186
712.0	0.189
712.5	0.188
713.0	0.197
713.5	0.199
714.0	0.201
714.5	0.205
715.0	0.201
715.5	0.193
716.0	0.187
716.5	0.185
717.0	0.182
717.5	0.180
718.0	0.184
718.5	0.184
719.0	0.187
719.5	0.191
720.0	0.196
720.5	0.186
721.0	0.183
721.5	0.171
722.0	0.162
722.5	0.153
723.0	0.156
723.5	0.161
724.0	0.162
724.5	0.166
725.0	0.178
725.5	0.177
726.0	0.182
726.5	0.189
727.0	0.202
727.5	0.202
728.0	0.207
728.5	0.201
729.0	0.185
729.5	0.173
730.0	0.165
730.5	0.157
731.0	0.157
731.5	0.167
732.0	0.170
732.5	0.162
733.0	0.162
733.5	0.153
734.0	0.145
734.5	0.141
735.0	0.141
735.5	0.143
736.0	0.147
736.5	0.145
737.0	0.143
737.5	0.131
738.0	0.133
738.5	0.130
739.0	0.143
739.5	0.153
740.0	0.158
740.5	0.165
741.0	0.165
741.5	0.161
742.0	0.161
742.5	0.153
743.0	0.146
743.5	0.141
744.0	0.140
744.5	0.147
745.0	0.149
745.5	0.153
746.0	0.149
746.5	0.157
747.0	0.168
747.5	0.170
748.0	0.168
748.5	0.175
749.0	0.178
749.5	0.182
750.0	0.176
750.5	0.164
751.0	0.147
751.5	0.148
752.0	0.151
752.5	0.146
753.0	0.152
753.5	0.158
754.0	0.158
754.5	0.146
755.0	0.128
755.5	0.120
756.0	0.121
756.5	0.127
757.0	0.137
757.5	0.141
758.0	0.152
758.5	0.153
759.0	0.144
759.5	0.134
760.0	0.128
760.5	0.139
761.0	0.152
761.5	0.168
762.0	0.178
762.5	0.178
763.0	0.177
763.5	0.174
764.0	0.161
764.5	0.154
765.0	0.153
765.5	0.151
766.0	0.148
766.5	0.158
767.0	0.149
767.5	0.140
768.0	0.126
768.5	0.124
769.0	0.120
769.5	0.123
770.0	0.124
770.5	0.122
771.0	0.122
771.5	0.131
772.0	0.128
772.5	0.125
773.0	0.128
773.5	0.142
774.0	0.145
774.5	0.151
775.0	0.155
775.5	0.160
776.0	0.154
776.5	0.151
777.0	0.162
777.5	0.163
778.0	0.170
778.5	0.167
779.0	0.158
779.5	0.155
780.0	0.157
780.5	0.151
781.0	0.146
781.5	0.145
782.0	0.154
782.5	0.155
783.0	0.147
783.5	0.139
784.0	0.136
784.5	0.131
785.0	0.130
785.5	0.127
786.0	0.132
786.5	0.143
787.0	0.155
787.5	0.165
788.0	0.160
788.5	0.164
789.0	0.160
789.5	0.148
790.0	0.135
790.5	0.124
791.0	0.109
791.5	0.101
792.0	0.098
792.5	0.093
793.0	0.096
793.5	0.111
794.0	0.121
794.5	0.127
795.0	0.128
795.5	0.131
796.0	0.129
796.5	0.125
797.0	0.122
797.5	0.115
798.0	0.121
798.5	0.130
799.0	0.137
799.5	0.139
800.0	0.135
800.5	0.137
801.0	0.132
801.5	0.118
802.0	0.112
802.5	0.109
803.0	0.114
803.5	0.125
804.0	0.125
804.5	0.123
805.0	0.125
805.5	0.127
806.0	0.120
806.5	0.119
807.0	0.133
807.5	0.136
808.0	0.149
808.5	0.154
809.0	0.146
809.5	0.138
810.0	0.144
810.5	0.135
811.0	0.129
811.5	0.123
812.0	0.123
812.5	0.116
813.0	0.122
813.5	0.116
814.0	0.113
814.5	0.109
815.0	0.111
815.5	0.111
816.0	0.120
816.5	0.114
817.0	0.118
817.5	0.120
818.0	0.123
818.5	0.114
819.0	0.108
819.5	0.096
820.0	0.089
820.5	0.084
821.0	0.087
821.5	0.095
822.0	0.112
822.5	0.130
823.0	0.146
823.5	0.150
824.0	0.155
824.5	0.149
825.0	0.146
825.5	0.134
826.0	0.128
826.5	0.130
827.0	0.123
827.5	0.116
828.0	0.116
828.5	0.119
829.0	0.117
829.5	0.117
830.0	0.117
830.5	0.115
831.0	0.107
831.5	0.105
832.0	0.097
832.5	0.100
833.0	0.109
833.5	0.112
834.0	0.112
834.5	0.113
835.0	0.108
835.5	0.099
836.0	0.093
836.5	0.096
837.0	0.094
837.5	0.095
838.0	0.094
838.5	0.086
839.0	0.087
839.5	0.097
840.0	0.107
840.5	0.109
841.0	0.112
841.5	0.116
842.0	0.111
842.5	0.111
843.0	0.114
843.5	0.111
844.0	0.123
844.5	0.133
845.0	0.136
845.5	0.140
846.0	0.124
846.5	0.118
847.0	0.107
847.5	0.112
848.0	0.101
848.5	0.093
849.0	0.091
849.5	0.093
850.0	0.085


Sample 4
5/10/2022 11:47 AM
Wavelength (nm)	10mm Absorbance
//WLCalib: Shift 	0.17333	
//WLCalib: 261S 	-0.08000	
//WLCalib: 362S 	-0.30000	
//WLCalib: 484S 	0.09000	
//WLCalib: 529S 	0.09000	
//WLCalib: 823S 	-0.38000	
//QSpecEnd: 
190.0	0.710
190.5	0.465
191.0	0.334
191.5	0.457
192.0	0.838
192.5	1.175
193.0	1.244
193.5	1.013
194.0	0.440
194.5	0.173
195.0	0.098
195.5	0.033
196.0	0.277
196.5	0.373
197.0	0.405
197.5	0.435
198.0	0.514
198.5	0.443
199.0	0.331
199.5	0.538
200.0	0.569
200.5	0.604
201.0	0.661
201.5	0.336
202.0	0.245
202.5	0.266
203.0	0.223
203.5	0.150
204.0	0.176
204.5	0.102
205.0	-0.013
205.5	-0.074
206.0	-0.072
206.5	0.173
207.0	0.378
207.5	0.534
208.0	0.602
208.5	0.597
209.0	0.521
209.5	0.363
210.0	0.219
210.5	-0.163
211.0	-0.146
211.5	-0.093
212.0	-0.095
212.5	-0.092
213.0	-0.067
213.5	-0.086
214.0	-0.012
214.5	0.079
215.0	0.174
215.5	0.083
216.0	0.103
216.5	0.105
217.0	0.086
217.5	0.053
218.0	0.017
218.5	-0.045
219.0	0.000
219.5	0.000
220.0	0.000
220.5	0.000
221.0	0.000
221.5	0.000
222.0	0.000
222.5	0.000
223.0	0.000
223.5	0.000
224.0	0.000
224.5	0.000
225.0	0.000
225.5	0.000
226.0	0.000
226.5	0.000
227.0	0.000
227.5	0.000
228.0	0.000
228.5	0.000
229.0	0.000
229.5	0.000
230.0	0.000
230.5	0.000
231.0	0.000
231.5	0.000
232.0	0.000
232.5	0.000
233.0	0.000
233.5	0.000
234.0	0.000
234.5	0.000
235.0	0.000
235.5	0.000
236.0	0.000
236.5	0.000
237.0	0.000
237.5	0.000
238.0	0.000
238.5	0.000
239.0	0.000
239.5	0.000
240.0	0.000
240.5	0.000
241.0	0.000
241.5	0.000
242.0	0.000
242.5	0.000
243.0	0.000
243.5	0.000
244.0	0.000
244.5	0.000
245.0	0.000
245.5	0.000
246.0	0.000
246.5	0.000
247.0	0.000
247.5	0.000
248.0	0.000
248.5	0.000
249.0	0.000
249.5	0.000
250.0	0.000
250.5	0.000
251.0	0.000
251.5	0.000
252.0	0.002
252.5	-0.018
253.0	-0.001
253.5	-0.008
254.0	0.022
254.5	0.065
255.0	0.095
255.5	0.110
256.0	0.112
256.5	0.099
257.0	0.073
257.5	0.028
258.0	0.019
258.5	-0.026
259.0	-0.004
259.5	0.000
260.0	0.000
260.5	0.000
261.0	0.000
261.5	0.000
262.0	0.000
262.5	0.000
263.0	0.000
263.5	0.000
264.0	0.000
264.5	0.000
265.0	0.000
265.5	0.000
266.0	0.000
266.5	0.000
267.0	0.000
267.5	0.013
268.0	-0.099
268.5	0.004
269.0	0.001
269.5	-0.048
270.0	0.079
270.5	0.391
271.0	0.966
271.5	1.664
272.0	2.470
272.5	3.046
273.0	3.410
273.5	3.810
274.0	3.810
274.5	3.835
275.0	3.969
275.5	4.377
276.0	4.984
276.5	5.696
277.0	6.424
277.5	6.996
278.0	7.514
278.5	8.031
279.0	8.412
279.5	8.783
280.0	9.256
280.5	9.917
281.0	10.649
281.5	11.445
282.0	12.158
282.5	12.826
283.0	13.506
283.5	14.141
284.0	14.707
284.5	15.344
285.0	16.141
285.5	17.034
286.0	17.931
286.5	18.664
287.0	19.178
287.5	19.573
288.0	19.871
288.5	20.129
289.0	20.477
289.5	21.013
290.0	21.696
290.5	22.451
291.0	23.113
291.5	23.610
292.0	24.155
292.5	24.744
293.0	25.095
293.5	24.949
294.0	24.178
294.5	22.918
295.0	21.095
295.5	18.600
296.0	15.665
296.5	12.596
297.0	9.919
297.5	7.648
298.0	5.659
298.5	3.869
299.0	2.269
299.5	0.947
300.0	-0.405
300.5	-1.979
301.0	-3.787
301.5	-5.638
302.0	-7.512
302.5	-9.718
303.0	-11.814
303.5	-13.359
304.0	-14.174
304.5	-14.163
305.0	-13.370
305.5	-11.969
306.0	-10.200
306.5	-8.129
307.0	-6.350
307.5	-5.198
308.0	-4.298
308.5	-3.595
309.0	-3.139
309.5	-2.829
310.0	-2.658
310.5	-2.577
311.0	-2.545
311.5	-2.476
312.0	-2.349
312.5	-2.122
313.0	-1.782
313.5	-1.348
314.0	-0.870
314.5	-0.355
315.0	0.141
315.5	0.596
316.0	0.984
316.5	1.319
317.0	1.591
317.5	1.823
318.0	2.014
318.5	2.164
319.0	2.274
319.5	2.361
320.0	2.418
320.5	2.456
321.0	2.479
321.5	2.486
322.0	2.491
322.5	2.498
323.0	2.502
323.5	2.502
324.0	2.501
324.5	2.500
325.0	2.504
325.5	2.514
326.0	2.523
326.5	2.523
327.0	2.532
327.5	2.535
328.0	2.534
328.5	2.522
329.0	2.505
329.5	2.489
330.0	2.472
330.5	2.457
331.0	2.430
331.5	2.400
332.0	2.379
332.5	2.356
333.0	2.336
333.5	2.314
334.0	2.293
334.5	2.271
335.0	2.245
335.5	2.217
336.0	2.191
336.5	2.164
337.0	2.146
337.5	2.123
338.0	2.098
338.5	2.075
339.0	2.056
339.5	2.036
340.0	2.016
340.5	1.993
341.0	1.975
341.5	1.953
342.0	1.937
342.5	1.917
343.0	1.898
343.5	1.887
344.0	1.879
344.5	1.866
345.0	1.844
345.5	1.819
346.0	1.799
346.5	1.781
347.0	1.762
347.5	1.748
348.0	1.736
348.5	1.728
349.0	1.722
349.5	1.705
350.0	1.688
350.5	1.669
351.0	1.657
351.5	1.647
352.0	1.639
352.5	1.633
353.0	1.624
353.5	1.617
354.0	1.606
354.5	1.589
355.0	1.572
355.5	1.556
356.0	1.549
356.5	1.538
357.0	1.527
357.5	1.516
358.0	1.503
358.5	1.493
359.0	1.481
359.5	1.467
360.0	1.458
360.5	1.458
361.0	1.457
361.5	1.451
362.0	1.444
362.5	1.437
363.0	1.428
363.5	1.416
364.0	1.403
364.5	1.389
365.0	1.383
365.5	1.379
366.0	1.379
366.5	1.375
367.0	1.370
367.5	1.360
368.0	1.348
368.5	1.337
369.0	1.326
369.5	1.315
370.0	1.305
370.5	1.301
371.0	1.299
371.5	1.294
372.0	1.289
372.5	1.278
373.0	1.265
373.5	1.260
374.0	1.251
374.5	1.244
375.0	1.241
375.5	1.237
376.0	1.231
376.5	1.226
377.0	1.219
377.5	1.209
378.0	1.197
378.5	1.189
379.0	1.182
379.5	1.181
380.0	1.182
380.5	1.175
381.0	1.164
381.5	1.155
382.0	1.149
382.5	1.143
383.0	1.139
383.5	1.135
384.0	1.132
384.5	1.128
385.0	1.119
385.5	1.110
386.0	1.094
386.5	1.082
387.0	1.073
387.5	1.064
388.0	1.064
388.5	1.063
389.0	1.064
389.5	1.064
390.0	1.064
390.5	1.059
391.0	1.047
391.5	1.039
392.0	1.027
392.5	1.020
393.0	1.014
393.5	1.010
394.0	1.005
394.5	0.998
395.0	0.994
395.5	0.983
396.0	0.975
396.5	0.970
397.0	0.963
397.5	0.964
398.0	0.965
398.5	0.966
399.0	0.964
399.5	0.961
400.0	0.958
400.5	0.954
401.0	0.946
401.5	0.937
402.0	0.931
402.5	0.925
403.0	0.921
403.5	0.920
404.0	0.921
404.5	0.922
405.0	0.920
405.5	0.916
406.0	0.906
406.5	0.900
407.0	0.890
407.5	0.882
408.0	0.880
408.5	0.877
409.0	0.878
409.5	0.880
410.0	0.879
410.5	0.878
411.0	0.875
411.5	0.871
412.0	0.866
412.5	0.860
413.0	0.853
413.5	0.842
414.0	0.837
414.5	0.836
415.0	0.834
415.5	0.834
416.0	0.833
416.5	0.830
417.0	0.827
417.5	0.820
418.0	0.815
418.5	0.810
419.0	0.814
419.5	0.814
420.0	0.812
420.5	0.811
421.0	0.807
421.5	0.802
422.0	0.796
422.5	0.790
423.0	0.786
423.5	0.780
424.0	0.775
424.5	0.767
425.0	0.767
425.5	0.767
426.0	0.762
426.5	0.764
427.0	0.764
427.5	0.765
428.0	0.764
428.5	0.759
429.0	0.753
429.5	0.752
430.0	0.751
430.5	0.746
431.0	0.741
431.5	0.739
432.0	0.734
432.5	0.731
433.0	0.725
433.5	0.723
434.0	0.724
434.5	0.730
435.0	0.726
435.5	0.724
436.0	0.725
436.5	0.723
437.0	0.718
437.5	0.712
438.0	0.707
438.5	0.706
439.0	0.706
439.5	0.704
440.0	0.698
440.5	0.691
441.0	0.687
441.5	0.683
442.0	0.677
442.5	0.674
443.0	0.673
443.5	0.673
444.0	0.670
444.5	0.670
445.0	0.669
445.5	0.666
446.0	0.666
446.5	0.662
447.0	0.657
447.5	0.656
448.0	0.653
448.5	0.648
449.0	0.640
449.5	0.638
450.0	0.634
450.5	0.635
451.0	0.642
451.5	0.645
452.0	0.650
452.5	0.655
453.0	0.654
453.5	0.648
454.0	0.641
454.5	0.632
455.0	0.625
455.5	0.622
456.0	0.618
456.5	0.613
457.0	0.609
457.5	0.605
458.0	0.601
458.5	0.601
459.0	0.600
459.5	0.600
460.0	0.604
460.5	0.609
461.0	0.611
461.5	0.612
462.0	0.610
462.5	0.608
463.0	0.605
463.5	0.603
464.0	0.593
464.5	0.583
465.0	0.577
465.5	0.576
466.0	0.579
466.5	0.583
467.0	0.587
467.5	0.588
468.0	0.587
468.5	0.582
469.0	0.576
469.5	0.572
470.0	0.567
470.5	0.565
471.0	0.566
471.5	0.566
472.0	0.568
472.5	0.566
473.0	0.566
473.5	0.567
474.0	0.570
474.5	0.571
475.0	0.569
475.5	0.568
476.0	0.564
476.5	0.559
477.0	0.553
477.5	0.545
478.0	0.541
478.5	0.536
479.0	0.532
479.5	0.532
480.0	0.533
480.5	0.534
481.0	0.534
481.5	0.536
482.0	0.535
482.5	0.534
483.0	0.534
483.5	0.531
484.0	0.529
484.5	0.531
485.0	0.532
485.5	0.530
486.0	0.529
486.5	0.530
487.0	0.530
487.5	0.528
488.0	0.524
488.5	0.516
489.0	0.510
489.5	0.510
490.0	0.510
490.5	0.513
491.0	0.514
491.5	0.514
492.0	0.513
492.5	0.508
493.0	0.503
493.5	0.500
494.0	0.498
494.5	0.501
495.0	0.505
495.5	0.507
496.0	0.505
496.5	0.499
497.0	0.497
497.5	0.495
498.0	0.497
498.5	0.503
499.0	0.505
499.5	0.514
500.0	0.516
500.5	0.511
501.0	0.497
501.5	0.488
502.0	0.483
502.5	0.480
503.0	0.478
503.5	0.477
504.0	0.475
504.5	0.478
505.0	0.475
505.5	0.471
506.0	0.462
506.5	0.462
507.0	0.462
507.5	0.462
508.0	0.463
508.5	0.463
509.0	0.465
509.5	0.466
510.0	0.465
510.5	0.466
511.0	0.461
511.5	0.456
512.0	0.451
512.5	0.451
513.0	0.454
513.5	0.454
514.0	0.453
514.5	0.455
515.0	0.457
515.5	0.457
516.0	0.452
516.5	0.449
517.0	0.444
517.5	0.444
518.0	0.445
518.5	0.447
519.0	0.454
519.5	0.466
520.0	0.471
520.5	0.471
521.0	0.468
521.5	0.464
522.0	0.452
522.5	0.444
523.0	0.438
523.5	0.436
524.0	0.435
524.5	0.433
525.0	0.428
525.5	0.425
526.0	0.427
526.5	0.430
527.0	0.430
527.5	0.431
528.0	0.430
528.5	0.430
529.0	0.428
529.5	0.423
530.0	0.418
530.5	0.419
531.0	0.425
531.5	0.429
532.0	0.433
532.5	0.434
533.0	0.436
533.5	0.439
534.0	0.438
534.5	0.435
535.0	0.432
535.5	0.425
536.0	0.419
536.5	0.415
537.0	0.415
537.5	0.412
538.0	0.410
538.5	0.409
539.0	0.408
539.5	0.409
540.0	0.411
540.5	0.410
541.0	0.409
541.5	0.404
542.0	0.403
542.5	0.403
543.0	0.402
543.5	0.403
544.0	0.403
544.5	0.406
545.0	0.411
545.5	0.414
546.0	0.414
546.5	0.411
547.0	0.413
547.5	0.416
548.0	0.418
548.5	0.417
549.0	0.413
549.5	0.411
550.0	0.409
550.5	0.406
551.0	0.403
551.5	0.402
552.0	0.403
552.5	0.403
553.0	0.404
553.5	0.399
554.0	0.397
554.5	0.400
555.0	0.399
555.5	0.400
556.0	0.403
556.5	0.403
557.0	0.407
557.5	0.406
558.0	0.407
558.5	0.402
559.0	0.400
559.5	0.401
560.0	0.396
560.5	0.392
561.0	0.391
561.5	0.387
562.0	0.390
562.5	0.389
563.0	0.390
563.5	0.390
564.0	0.389
564.5	0.391
565.0	0.386
565.5	0.380
566.0	0.377
566.5	0.380
567.0	0.385
567.5	0.388
568.0	0.392
568.5	0.395
569.0	0.397
569.5	0.401
570.0	0.395
570.5	0.392
571.0	0.388
571.5	0.386
572.0	0.379
572.5	0.371
573.0	0.364
573.5	0.360
574.0	0.363
574.5	0.371
575.0	0.373
575.5	0.374
576.0	0.375
576.5	0.375
577.0	0.374
577.5	0.368
578.0	0.363
578.5	0.364
579.0	0.368
579.5	0.372
580.0	0.373
580.5	0.371
581.0	0.375
581.5	0.379
582.0	0.384
582.5	0.384
583.0	0.381
583.5	0.381
584.0	0.376
584.5	0.375
585.0	0.372
585.5	0.367
586.0	0.363
586.5	0.359
587.0	0.353
587.5	0.348
588.0	0.339
588.5	0.336
589.0	0.335
589.5	0.344
590.0	0.354
590.5	0.363
591.0	0.367
591.5	0.366
592.0	0.362
592.5	0.363
593.0	0.357
593.5	0.351
594.0	0.352
594.5	0.359
595.0	0.363
595.5	0.366
596.0	0.364
596.5	0.362
597.0	0.361
597.5	0.360
598.0	0.354
598.5	0.347
599.0	0.346
599.5	0.349
600.0	0.343
600.5	0.341
601.0	0.338
601.5	0.339
602.0	0.336
602.5	0.335
603.0	0.333
603.5	0.329
604.0	0.329
604.5	0.326
605.0	0.318
605.5	0.314
606.0	0.315
606.5	0.317
607.0	0.319
607.5	0.320
608.0	0.324
608.5	0.329
609.0	0.333
609.5	0.333
610.0	0.336
610.5	0.341
611.0	0.341
611.5	0.338
612.0	0.335
612.5	0.324
613.0	0.314
613.5	0.315
614.0	0.316
614.5	0.314
615.0	0.316
615.5	0.318
616.0	0.322
616.5	0.330
617.0	0.335
617.5	0.330
618.0	0.323
618.5	0.321
619.0	0.312
619.5	0.304
620.0	0.299
620.5	0.297
621.0	0.299
621.5	0.303
622.0	0.307
622.5	0.307
623.0	0.303
623.5	0.297
624.0	0.300
624.5	0.298
625.0	0.299
625.5	0.305
626.0	0.311
626.5	0.311
627.0	0.319
627.5	0.317
628.0	0.313
628.5	0.306
629.0	0.306
629.5	0.303
630.0	0.310
630.5	0.314
631.0	0.315
631.5	0.316
632.0	0.320
632.5	0.310
633.0	0.306
633.5	0.297
634.0	0.300
634.5	0.305
635.0	0.309
635.5	0.309
636.0	0.310
636.5	0.310
637.0	0.308
637.5	0.306
638.0	0.302
638.5	0.300
639.0	0.308
639.5	0.310
640.0	0.311
640.5	0.311
641.0	0.314
641.5	0.314
642.0	0.317
642.5	0.317
643.0	0.309
643.5	0.306
644.0	0.300
644.5	0.299
645.0	0.295
645.5	0.298
646.0	0.306
646.5	0.301
647.0	0.301
647.5	0.296
648.0	0.296
648.5	0.293
649.0	0.292
649.5	0.299
650.0	0.298
650.5	0.298
651.0	0.297
651.5	0.292
652.0	0.292
652.5	0.290
653.0	0.293
653.5	0.292
654.0	0.299
654.5	0.302
655.0	0.297
655.5	0.288
656.0	0.284
656.5	0.278
657.0	0.277
657.5	0.278
658.0	0.284
658.5	0.292
659.0	0.298
659.5	0.306
660.0	0.317
660.5	0.320
661.0	0.318
661.5	0.309
662.0	0.307
662.5	0.298
663.0	0.292
663.5	0.284
664.0	0.273
664.5	0.264
665.0	0.265
665.5	0.263
666.0	0.258
666.5	0.258
667.0	0.266
667.5	0.268
668.0	0.273
668.5	0.278
669.0	0.278
669.5	0.276
670.0	0.280
670.5	0.282
671.0	0.290
671.5	0.294
672.0	0.299
672.5	0.298
673.0	0.296
673.5	0.292
674.0	0.287
674.5	0.283
675.0	0.278
675.5	0.277
676.0	0.277
676.5	0.274
677.0	0.270
677.5	0.271
678.0	0.272
678.5	0.278
679.0	0.285
679.5	0.293
680.0	0.298
680.5	0.299
681.0	0.292
681.5	0.288
682.0	0.273
682.5	0.263
683.0	0.249
683.5	0.242
684.0	0.236
684.5	0.238
685.0	0.240
685.5	0.245
686.0	0.255
686.5	0.267
687.0	0.272
687.5	0.278
688.0	0.283
688.5	0.289
689.0	0.293
689.5	0.298
690.0	0.300
690.5	0.301
691.0	0.308
691.5	0.310
692.0	0.300
692.5	0.284
693.0	0.267
693.5	0.251
694.0	0.240
694.5	0.239
695.0	0.233
695.5	0.235
696.0	0.245
696.5	0.250
697.0	0.250
697.5	0.257
698.0	0.267
698.5	0.282
699.0	0.303
699.5	0.323
700.0	0.325
700.5	0.322
701.0	0.313
701.5	0.300
702.0	0.284
702.5	0.279
703.0	0.277
703.5	0.277
704.0	0.280
704.5	0.273
705.0	0.262
705.5	0.245
706.0	0.239
706.5	0.241
707.0	0.248
707.5	0.254
708.0	0.262
708.5	0.270
709.0	0.276
709.5	0.276
710.0	0.274
710.5	0.272
711.0	0.270
711.5	0.266
712.0	0.271
712.5	0.271
713.0	0.278
713.5	0.279
714.0	0.278
714.5	0.279
715.0	0.277
715.5	0.274
716.0	0.267
716.5	0.263
717.0	0.261
717.5	0.264
718.0	0.267
718.5	0.263
719.0	0.264
719.5	0.273
720.0	0.280
720.5	0.274
721.0	0.272
721.5	0.257
722.0	0.243
722.5	0.233
723.0	0.224
723.5	0.222
724.0	0.224
724.5	0.237
725.0	0.252
725.5	0.257
726.0	0.271
726.5	0.277
727.0	0.290
727.5	0.293
728.0	0.289
728.5	0.282
729.0	0.265
729.5	0.258
730.0	0.248
730.5	0.245
731.0	0.248
731.5	0.255
732.0	0.256
732.5	0.252
733.0	0.246
733.5	0.238
734.0	0.226
734.5	0.224
735.0	0.220
735.5	0.219
736.0	0.221
736.5	0.221
737.0	0.219
737.5	0.214
738.0	0.217
738.5	0.218
739.0	0.223
739.5	0.231
740.0	0.239
740.5	0.243
741.0	0.246
741.5	0.247
742.0	0.249
742.5	0.241
743.0	0.233
743.5	0.225
744.0	0.217
744.5	0.218
745.0	0.223
745.5	0.227
746.0	0.230
746.5	0.240
747.0	0.252
747.5	0.254
748.0	0.253
748.5	0.257
749.0	0.257
749.5	0.256
750.0	0.252
750.5	0.232
751.0	0.217
751.5	0.217
752.0	0.223
752.5	0.225
753.0	0.231
753.5	0.242
754.0	0.245
754.5	0.240
755.0	0.233
755.5	0.220
756.0	0.217
756.5	0.214
757.0	0.216
757.5	0.217
758.0	0.216
758.5	0.214
759.0	0.204
759.5	0.200
760.0	0.206
760.5	0.217
761.0	0.233
761.5	0.247
762.0	0.260
762.5	0.262
763.0	0.260
763.5	0.255
764.0	0.244
764.5	0.234
765.0	0.236
765.5	0.234
766.0	0.236
766.5	0.247
767.0	0.244
767.5	0.233
768.0	0.223
768.5	0.220
769.0	0.213
769.5	0.203
770.0	0.202
770.5	0.190
771.0	0.181
771.5	0.187
772.0	0.185
772.5	0.189
773.0	0.199
773.5	0.214
774.0	0.227
774.5	0.235
775.0	0.240
775.5	0.244
776.0	0.229
776.5	0.232
777.0	0.235
777.5	0.237
778.0	0.236
778.5	0.230
779.0	0.231
779.5	0.233
780.0	0.231
780.5	0.230
781.0	0.217
781.5	0.220
782.0	0.221
782.5	0.217
783.0	0.208
783.5	0.206
784.0	0.215
784.5	0.223
785.0	0.229
785.5	0.238
786.0	0.246
786.5	0.248
787.0	0.253
787.5	0.251
788.0	0.250
788.5	0.251
789.0	0.244
789.5	0.234
790.0	0.230
790.5	0.215
791.0	0.203
791.5	0.190
792.0	0.192
792.5	0.192
793.0	0.202
793.5	0.209
794.0	0.215
794.5	0.221
795.0	0.222
795.5	0.215
796.0	0.212
796.5	0.208
797.0	0.211
797.5	0.208
798.0	0.216
798.5	0.226
799.0	0.236
799.5	0.241
800.0	0.237
800.5	0.231
801.0	0.226
801.5	0.214
802.0	0.201
802.5	0.194
803.0	0.190
803.5	0.195
804.0	0.192
804.5	0.195
805.0	0.206
805.5	0.213
806.0	0.220
806.5	0.222
807.0	0.239
807.5	0.246
808.0	0.248
808.5	0.242
809.0	0.231
809.5	0.227
810.0	0.235
810.5	0.222
811.0	0.213
811.5	0.212
812.0	0.218
812.5	0.210
813.0	0.213
813.5	0.205
814.0	0.198
814.5	0.199
815.0	0.203
815.5	0.203
816.0	0.208
816.5	0.204
817.0	0.197
817.5	0.188
818.0	0.188
818.5	0.184
819.0	0.174
819.5	0.173
820.0	0.174
820.5	0.176
821.0	0.178
821.5	0.184
822.0	0.196
822.5	0.212
823.0	0.231
823.5	0.237
824.0	0.238
824.5	0.232
825.0	0.227
825.5	0.214
826.0	0.210
826.5	0.214
827.0	0.211
827.5	0.210
828.0	0.215
828.5	0.218
829.0	0.217
829.5	0.216
830.0	0.212
830.5	0.207
831.0	0.203
831.5	0.200
832.0	0.191
832.5	0.195
833.0	0.209
833.5	0.216
834.0	0.218
834.5	0.216
835.0	0.206
835.5	0.194
836.0	0.183
836.5	0.180
837.0	0.175
837.5	0.176
838.0	0.183
838.5	0.184
839.0	0.186
839.5	0.196
840.0	0.203
840.5	0.208
841.0	0.207
841.5	0.209
842.0	0.206
842.5	0.209
843.0	0.222
843.5	0.218
844.0	0.217
844.5	0.222
845.0	0.218
845.5	0.212
846.0	0.201
846.5	0.204
847.0	0.197
847.5	0.215
848.0	0.217
848.5	0.213
849.0	0.206
849.5	0.205
850.0	0.209

